thisN,thisTrialN,thisRepN,block_start_key_resp.keys,block_start_key_resp.rt,block_start_key_resp.duration,es_gradcpt_slider.response,es_gradcpt_slider.rt,es_gradcpt_key_resp.keys,es_gradcpt_key_resp.rt,es_gradcpt_key_resp.duration,block_rest_key_resp.keys,block_rest_key_resp.rt,block_rest_key_resp.duration,blocks.thisRepN,blocks.thisTrialN,blocks.thisN,blocks.thisIndex,trials.thisRepN,trials.thisTrialN,trials.thisN,trials.thisIndex,ES_loop.thisRepN,ES_loop.thisTrialN,ES_loop.thisN,ES_loop.thisIndex,thisRow.t,notes,estimate_frame_rate.started,frame_rate_prompt.started,estimate_frame_rate.stopped,welcome.started,welcome_key_resp.started,welcome_text.started,welcome.stopped,welcome_key_resp.keys,welcome_key_resp.rt,welcome_key_resp.duration,gradcpt_prep.started,gradcpt_prep_text.started,key_resp.started,gradcpt_prep.stopped,key_resp.keys,key_resp.rt,key_resp.duration,block_start.started,black_start_text.started,block_start_key_resp.started,block_start.stopped,blocks.block_start_key_resp.keys,blocks.block_start_key_resp.rt,blocks.block_start_key_resp.duration,prepare_block.started,prepare_block_text.started,prepare_block.stopped,gradcpt_stim.started,gradcpt_image.started,gradcpt_stim.stopped,ES_gradcpt.started,es_text_component_gradcpt.started,es_gradcpt_slider.started,low_anchor_gradcpt.started,es_gradcpt_mouse.started,high_anchor_gradcpt.started,es_gradcpt_key_resp.started,enter_advance_gradcpt.started,ES_gradcpt.stopped,ES_loop.es_gradcpt_slider.response,ES_loop.es_gradcpt_slider.rt,ES_loop.es_gradcpt_key_resp.keys,ES_loop.es_gradcpt_key_resp.rt,ES_loop.es_gradcpt_key_resp.duration,ES_isi_gradcpt.started,es_gradcpt_isi_text.started,es_gradcpt_isi_text.stopped,ES_isi_gradcpt.stopped,prepare_trial.started,prepare_text.started,prepare_trial.stopped,block_rest.started,block_rest_text.started,block_rest_key_resp.started,block_rest.stopped,blocks.block_rest_key_resp.keys,blocks.block_rest_key_resp.rt,blocks.block_rest_key_resp.duration,debrief.started,debrief_text.started,debrief_resp.started,debrief.stopped,debrief_resp.keys,debrief_resp.rt,debrief_resp.duration,Thanks.started,thanks_text.started,Thanks.stopped,participant,session,date,expName,psychopyVersion,frameRate,expStart,
,,,,,,,,,,,,,,,,,,,,,,,,,,,,0.012917799991555512,0.026275200012605637,5.014443399966694,,,,,,,,,,,,,,,,,,,,,,,,,,,,,,,,,,,,,,,,,,,,,,,,,,,,,,,,,,,,,,,,,,212124,001,2024-09-13_11h31.20.219,gradcptpy,2024.2.1post4,59.99646020983193,2024-09-13 11h31.25.256712 -0400,
,,,,,,,,,,,,,,,,,,,,,,,,,,,,,,,5.014680899970699,5.027702999999747,5.027702999999747,9.940428100002464,space,4.899720299988985,None,,,,,,,,,,,,,,,,,,,,,,,,,,,,,,,,,,,,,,,,,,,,,,,,,,,,,,,,,,,212124,001,2024-09-13_11h31.20.219,gradcptpy,2024.2.1post4,59.99646020983193,2024-09-13 11h31.25.256712 -0400,
,,,,,,,,,,,,,,,,,,,,,,,,,,,,,,,,,,,,,,9.969150399963837,9.982541600009426,9.982541600009426,10.37092199997278,space,0.3837414000299759,None,,,,,,,,,,,,,,,,,,,,,,,,,,,,,,,,,,,,,,,,,,,,,,,,,,,,212124,001,2024-09-13_11h31.20.219,gradcptpy,2024.2.1post4,59.99646020983193,2024-09-13 11h31.25.256712 -0400,
0,0,0,space,0.686361100000795,None,0.6066666666666667,2.8671497000032105,return,0.41942270001163706,None,,,,0,0,0,0,0,0,0,0,0,0,0,0,48.87477039999794,,,,,,,,,,,,,,,,,,,10.383174200018402,10.399787099973764,10.399787099973764,11.087987000006251,space,0.686361100000795,None,11.124090199999046,11.1504050999647,16.12597900000401,16.127283399982844,16.140108199964743,48.838801399979275,48.854653500020504,48.87477039999794,48.87477039999794,48.87477039999794,0.015870499948505312,48.87477039999794,51.747088000003714,51.747088000003714,52.168194799975026,0.6066666666666667,2.8671497000032105,return,0.41942270001163706,None,52.168429300014395,52.17829630000051,52.69498219998786,52.66586720000487,,,,,,,,,,,,,,,,,,,,,212124,001,2024-09-13_11h31.20.219,gradcptpy,2024.2.1post4,59.99646020983193,2024-09-13 11h31.25.256712 -0400,
1,0,1,space,0.686361100000795,None,0.4633333333333333,0.4456668000202626,return,0.04119640000863001,None,,,,0,0,0,0,0,0,0,0,1,0,1,0,52.69498219998786,,,,,,,,,,,,,,,,,,,,,,,,,,,,,,,,52.68006300000707,52.69498219998786,52.69498219998786,52.69498219998786,0.01422040001489222,52.69498219998786,53.14620409999043,53.14620409999043,53.20061860000715,0.4633333333333333,0.4456668000202626,return,0.04119640000863001,None,53.2008499999647,53.214034600008745,53.73007699998561,53.70060400001239,,,,,,,,,,,,,,,,,,,,,212124,001,2024-09-13_11h31.20.219,gradcptpy,2024.2.1post4,59.99646020983193,2024-09-13 11h31.25.256712 -0400,
2,0,2,space,0.686361100000795,None,0.39,0.6984453000477515,return,0.03617209999356419,None,,,,0,0,0,0,0,0,0,0,2,0,2,0,53.73007699998561,,,,,,,,,,,,,,,,,,,,,,,,,,,,,,,,53.710989799990784,53.73007699998561,53.73007699998561,53.73007699998561,0.010405000008177012,53.73007699998561,54.43077779997839,54.43077779997839,54.4704210999771,0.39,0.6984453000477515,return,0.03617209999356419,None,54.47065719997045,54.4833493999904,55.01485039998079,54.98508399998536,,,,,,,,,,,,,,,,,,,,,212124,001,2024-09-13_11h31.20.219,gradcptpy,2024.2.1post4,59.99646020983193,2024-09-13 11h31.25.256712 -0400,
3,0,3,space,0.686361100000795,None,0.455,0.9157102000317536,return,0.05139979999512434,None,,,,0,0,0,0,0,0,0,0,3,0,3,0,55.01485039998079,,,,,,,,,,,,,,,,,,,,,,,,,,,,,,,,54.99467119999463,55.01485039998079,55.01485039998079,55.01485039998079,0.009610000008251518,55.01485039998079,55.93517259997316,55.93517259997316,55.988504000008106,0.455,0.9157102000317536,return,0.05139979999512434,None,55.98874010000145,56.000677299976815,56.53230219997931,56.5032464999822,,,,,,,,,,,,,,,,,,,,,212124,001,2024-09-13_11h31.20.219,gradcptpy,2024.2.1post4,59.99646020983193,2024-09-13 11h31.25.256712 -0400,
4,0,4,space,0.686361100000795,None,0.28833333333333333,0.6656784999649972,return,0.04560519999358803,None,,,,0,0,0,0,0,0,0,0,4,0,4,0,56.53230219997931,,,,,,,,,,,,,,,,,,,,,,,,,,,,,,,,56.51284049998503,56.53230219997931,56.53230219997931,56.53230219997931,0.009615199989639223,56.53230219997931,57.20163490000414,57.20163490000414,57.25530409999192,0.28833333333333333,0.6656784999649972,return,0.04560519999358803,None,57.25554079998983,57.268519299977925,57.783774800016545,57.75476229999913,,,,,,,,,,,,,,,,,,,,,212124,001,2024-09-13_11h31.20.219,gradcptpy,2024.2.1post4,59.99646020983193,2024-09-13 11h31.25.256712 -0400,
5,0,5,space,0.686361100000795,None,0.5566666666666666,0.5136259000282735,return,0.0055874999961815774,None,,,,0,0,0,0,0,0,0,0,5,0,5,0,57.783774800016545,,,,,,,,,,,,,,,,,,,,,,,,,,,,,,,,57.76570250000805,57.783774800016545,57.783774800016545,57.783774800016545,0.010961199994198978,57.783774800016545,58.301324100000784,58.301324100000784,58.32280239998363,0.5566666666666666,0.5136259000282735,return,0.0055874999961815774,None,58.32305559999077,58.33473090000916,58.852194499981124,58.8240616999683,,,,,,,,,,,,,,,,,,,,,212124,001,2024-09-13_11h31.20.219,gradcptpy,2024.2.1post4,59.99646020983193,2024-09-13 11h31.25.256712 -0400,
0,0,0,space,0.686361100000795,None,,,,,,,,,0,0,0,0,0,0,0,0,,,,,,,,,,,,,,,,,,,,,,,,,,,,,,,,,,,,,,,,,,,,,,,,,,,,,,,58.83081449999008,58.852194499981124,63.827013099973556,,,,,,,,,,,,,,,,,,212124,001,2024-09-13_11h31.20.219,gradcptpy,2024.2.1post4,59.99646020983193,2024-09-13 11h31.25.256712 -0400,
0,0,0,space,0.686361100000795,None,0.5516666666666666,1.7613070999504998,return,0.5137702999636531,None,,,,0,0,0,0,1,0,1,0,0,0,0,0,96.52497209998546,,,,,,,,,,,,,,,,,,,,,,,,,,,,,63.82718149997527,63.84100999997463,96.49951829999918,96.51029740000376,96.52497209998546,96.52497209998546,96.52497209998546,0.010797399969305843,96.52497209998546,98.29399099998409,98.29399099998409,98.81543229997624,0.5516666666666666,1.7613070999504998,return,0.5137702999636531,None,98.81564330001129,98.82785509998212,99.34455530002015,99.31531249999534,,,,,,,,,,,,,,,,,,,,,212124,001,2024-09-13_11h31.20.219,gradcptpy,2024.2.1post4,59.99646020983193,2024-09-13 11h31.25.256712 -0400,
1,0,1,space,0.686361100000795,None,0.3383333333333334,0.5139968000003137,return,0.02526750002289191,None,,,,0,0,0,0,1,0,1,0,1,0,1,0,99.34455530002015,,,,,,,,,,,,,,,,,,,,,,,,,,,,,,,,99.32421140000224,99.34455530002015,99.34455530002015,99.34455530002015,0.008919799991417676,99.34455530002015,99.862217899994,99.862217899994,99.8999363000039,0.3383333333333334,0.5139968000003137,return,0.02526750002289191,None,99.90015489998041,99.91250189999118,100.42937109997729,100.39990000001853,,,,,,,,,,,,,,,,,,,,,212124,001,2024-09-13_11h31.20.219,gradcptpy,2024.2.1post4,59.99646020983193,2024-09-13 11h31.25.256712 -0400,
2,0,2,space,0.686361100000795,None,0.6366666666666667,0.48127589997602627,return,0.0331374000525102,None,,,,0,0,0,0,1,0,1,0,2,0,2,0,100.42937109997729,,,,,,,,,,,,,,,,,,,,,,,,,,,,,,,,100.4078377999831,100.42937109997729,100.42937109997729,100.42937109997729,0.007954000029712915,100.42937109997729,100.91453070001444,100.91453070001444,100.95305419998476,0.6366666666666667,0.48127589997602627,return,0.0331374000525102,None,100.95328989997506,100.96387599996524,101.46407539997017,101.45069570001215,,,,,,,,,,,,,,,,,,,,,212124,001,2024-09-13_11h31.20.219,gradcptpy,2024.2.1post4,59.99646020983193,2024-09-13 11h31.25.256712 -0400,
3,0,3,space,0.686361100000795,None,0.38,0.44814900000346825,return,0.036868799943476915,None,,,,0,0,0,0,1,0,1,0,3,0,3,0,101.46407539997017,,,,,,,,,,,,,,,,,,,,,,,,,,,,,,,,101.45892130001448,101.46407539997017,101.46407539997017,101.46407539997017,0.008238499984145164,101.46407539997017,101.9311735999654,101.9311735999654,101.98565970000345,0.38,0.44814900000346825,return,0.036868799943476915,None,101.9858711999841,101.99797249998664,102.5146513999789,102.4854494999745,,,,,,,,,,,,,,,,,,,,,212124,001,2024-09-13_11h31.20.219,gradcptpy,2024.2.1post4,59.99646020983193,2024-09-13 11h31.25.256712 -0400,
4,0,4,space,0.686361100000795,None,0.69,0.49747230001958087,return,0.03304750000825152,None,,,,0,0,0,0,1,0,1,0,4,0,4,0,102.5146513999789,,,,,,,,,,,,,,,,,,,,,,,,,,,,,,,,102.4945783999865,102.5146513999789,102.5146513999789,102.5146513999789,0.009141199989244342,102.5146513999789,103.01568900002167,103.01568900002167,103.05348429997684,0.69,0.49747230001958087,return,0.03304750000825152,None,103.05370230000699,103.06575700000394,103.58250720001524,103.55319399997825,,,,,,,,,,,,,,,,,,,,,212124,001,2024-09-13_11h31.20.219,gradcptpy,2024.2.1post4,59.99646020983193,2024-09-13 11h31.25.256712 -0400,
5,0,5,space,0.686361100000795,None,0.4166666666666667,0.4803721000207588,return,0.04144519998226315,None,,,,0,0,0,0,1,0,1,0,5,0,5,0,103.58250720001524,,,,,,,,,,,,,,,,,,,,,,,,,,,,,,,,103.56289920001291,103.58250720001524,103.58250720001524,103.58250720001524,0.009720300033222884,103.58250720001524,104.0669311999809,104.0669311999809,104.12134229997173,0.4166666666666667,0.4803721000207588,return,0.04144519998226315,None,104.12155450001592,104.1334962999681,104.65028110001003,104.62082419998478,,,,,,,,,,,,,,,,,,,,,212124,001,2024-09-13_11h31.20.219,gradcptpy,2024.2.1post4,59.99646020983193,2024-09-13 11h31.25.256712 -0400,
1,0,1,space,0.686361100000795,None,,,,,,,,,0,0,0,0,1,0,1,0,,,,,,,,,,,,,,,,,,,,,,,,,,,,,,,,,,,,,,,,,,,,,,,,,,,,,,,104.6234660000191,,104.62349879997782,,,,,,,,,,,,,,,,,,212124,001,2024-09-13_11h31.20.219,gradcptpy,2024.2.1post4,59.99646020983193,2024-09-13 11h31.25.256712 -0400,
0,0,0,space,0.686361100000795,None,,,,,,space,1.4179050999809988,None,0,0,0,0,,,,,,,,,,,,,,,,,,,,,,,,,,,,,,,,,,,,,,,,,,,,,,,,,,,,,,,,,,,,,,104.63315680000233,104.65028110001003,104.65028110001003,106.07327759999316,space,1.4179050999809988,None,,,,,,,,,,,212124,001,2024-09-13_11h31.20.219,gradcptpy,2024.2.1post4,59.99646020983193,2024-09-13 11h31.25.256712 -0400,
0,0,0,space,1.3832365000271238,None,0.5266666666666666,2.7591129999491386,return,1.152565800002776,None,,,,1,0,1,0,0,0,0,0,0,0,0,0,137.88581050001085,,,,,,,,,,,,,,,,,,,106.07345949998125,106.08564790000673,106.08564790000673,107.47441419999814,space,1.3832365000271238,None,107.51055000000633,107.5200288000051,112.51220659998944,112.51359980000416,112.5263266999973,137.863375899964,137.87156319996575,137.88581050001085,137.88581050001085,137.88581050001085,0.008198699972126633,137.88581050001085,140.65587710001273,140.65587710001273,141.81164349999744,0.5266666666666666,2.7591129999491386,return,1.152565800002776,None,141.8118536999682,141.8238532000105,142.34047230001306,142.3114135999931,,,,,,,,,,,,,,,,,,,,,212124,001,2024-09-13_11h31.20.219,gradcptpy,2024.2.1post4,59.99646020983193,2024-09-13 11h31.25.256712 -0400,
1,0,1,space,1.3832365000271238,None,0.33499999999999996,0.5133793000131845,return,0.030270999995991588,None,,,,1,0,1,0,0,0,0,0,1,0,1,0,142.34047230001306,,,,,,,,,,,,,,,,,,,,,,,,,,,,,,,,142.32091800001217,142.34047230001306,142.34047230001306,142.34047230001306,0.009510600008070469,142.34047230001306,142.85815919999732,142.85815919999732,142.89587989996653,0.33499999999999996,0.5133793000131845,return,0.030270999995991588,None,142.89609920000657,142.90829559997655,143.42509580001934,143.39568459999282,,,,,,,,,,,,,,,,,,,,,212124,001,2024-09-13_11h31.20.219,gradcptpy,2024.2.1post4,59.99646020983193,2024-09-13 11h31.25.256712 -0400,
2,0,2,space,1.3832365000271238,None,0.7033333333333334,0.5306255000177771,return,None,None,,,,1,0,1,0,0,0,0,0,2,0,2,0,143.42509580001934,,,,,,,,,,,,,,,,,,,,,,,,,,,,,,,,143.40380019997247,143.42509580001934,143.42509580001934,143.42509580001934,0.008129899972118437,143.42509580001934,143.95939620002173,143.95939620002173,144.01442909997422,0.7033333333333334,0.5306255000177771,return,None,None,144.0146901999833,144.026353299967,144.54334279999603,144.51352480001515,,,,,,,,,,,,,,,,,,,,,212124,001,2024-09-13_11h31.20.219,gradcptpy,2024.2.1post4,59.99646020983193,2024-09-13 11h31.25.256712 -0400,
3,0,3,space,1.3832365000271238,None,0.3566666666666667,0.5484464000328444,return,0.032877299992833287,None,,,,1,0,1,0,0,0,0,0,3,0,3,0,144.54334279999603,,,,,,,,,,,,,,,,,,,,,,,,,,,,,,,,144.52292849996593,144.54334279999603,144.54334279999603,144.54334279999603,0.009420600021257997,144.54334279999603,145.09496389998822,145.09496389998822,145.13210190000245,0.3566666666666667,0.5484464000328444,return,0.032877299992833287,None,145.13232629996492,145.1445495999651,145.66073870001128,145.6315260999836,,,,,,,,,,,,,,,,,,,,,212124,001,2024-09-13_11h31.20.219,gradcptpy,2024.2.1post4,59.99646020983193,2024-09-13 11h31.25.256712 -0400,
4,0,4,space,1.3832365000271238,None,0.5916666666666667,0.4476446000044234,return,None,None,,,,1,0,1,0,0,0,0,0,4,0,4,0,145.66073870001128,,,,,,,,,,,,,,,,,,,,,,,,,,,,,,,,145.6403869999922,145.66073870001128,145.66073870001128,145.66073870001128,0.008876800013240427,145.66073870001128,146.1118218000047,146.1118218000047,146.18284399999538,0.5916666666666667,0.4476446000044234,return,None,None,146.1830578999943,146.19514169998,146.71185479999986,146.68254499998875,,,,,,,,,,,,,,,,,,,,,212124,001,2024-09-13_11h31.20.219,gradcptpy,2024.2.1post4,59.99646020983193,2024-09-13 11h31.25.256712 -0400,
5,0,5,space,1.3832365000271238,None,0.5616666666666666,0.54789470002288,return,0.006789300008676946,None,,,,1,0,1,0,0,0,0,0,5,0,5,0,146.71185479999986,,,,,,,,,,,,,,,,,,,,,,,,,,,,,,,,146.69220170000335,146.71185479999986,146.71185479999986,146.71185479999986,0.009670600004028529,146.71185479999986,147.2629334999947,147.2629334999947,147.28382030001376,0.5616666666666666,0.54789470002288,return,0.006789300008676946,None,147.28404850000516,147.2963613999891,147.79691239999374,147.78357329999562,,,,,,,,,,,,,,,,,,,,,212124,001,2024-09-13_11h31.20.219,gradcptpy,2024.2.1post4,59.99646020983193,2024-09-13 11h31.25.256712 -0400,
0,0,0,space,1.3832365000271238,None,,,,,,,,,1,0,1,0,0,0,0,0,,,,,,,,,,,,,,,,,,,,,,,,,,,,,,,,,,,,,,,,,,,,,,,,,,,,,,,147.79038879997097,147.79691239999374,152.7884399999748,,,,,,,,,,,,,,,,,,212124,001,2024-09-13_11h31.20.219,gradcptpy,2024.2.1post4,59.99646020983193,2024-09-13 11h31.25.256712 -0400,
0,0,0,space,1.3832365000271238,None,0.5483333333333333,2.4585461000096984,return,0.07649569999193773,None,,,,1,0,1,0,1,0,1,0,0,0,0,0,178.96292949997587,,,,,,,,,,,,,,,,,,,,,,,,,,,,,152.78864250000333,152.80263589997776,178.94103509996785,178.94918049999978,178.96292949997587,178.96292949997587,178.96292949997587,0.008155900053679943,178.96292949997587,181.4327349999803,181.4327349999803,181.5206222999841,0.5483333333333333,2.4585461000096984,return,0.07649569999193773,None,181.52083950000815,181.5329400000046,182.04950670001563,182.0201530000195,,,,,,,,,,,,,,,,,,,,,212124,001,2024-09-13_11h31.20.219,gradcptpy,2024.2.1post4,59.99646020983193,2024-09-13 11h31.25.256712 -0400,
1,0,1,space,1.3832365000271238,None,0.4166666666666667,0.5971745999995619,return,0.058263099985197186,None,,,,1,0,1,0,1,0,1,0,1,0,1,0,182.04950670001563,,,,,,,,,,,,,,,,,,,,,,,,,,,,,,,,182.0293926000013,182.04950670001563,182.04950670001563,182.04950670001563,0.009254000033251941,182.04950670001563,182.65098199999193,182.65098199999193,182.7221961999894,0.4166666666666667,0.5971745999995619,return,0.058263099985197186,None,182.72243019996677,182.73425589996623,183.25074940000195,183.22144759999355,,,,,,,,,,,,,,,,,,,,,212124,001,2024-09-13_11h31.20.219,gradcptpy,2024.2.1post4,59.99646020983193,2024-09-13 11h31.25.256712 -0400,
2,0,2,space,1.3832365000271238,None,0.6533333333333333,0.447975899965968,return,0.04693449998740107,None,,,,1,0,1,0,1,0,1,0,2,0,2,0,183.25074940000195,,,,,,,,,,,,,,,,,,,,,,,,,,,,,,,,183.23037890001433,183.25074940000195,183.25074940000195,183.25074940000195,0.008948499977122992,183.25074940000195,183.70191800000612,183.70191800000612,183.75680550001562,0.6533333333333333,0.447975899965968,return,0.04693449998740107,None,183.75706749997335,183.7687863999745,184.26904360001208,184.25588870001957,,,,,,,,,,,,,,,,,,,,,212124,001,2024-09-13_11h31.20.219,gradcptpy,2024.2.1post4,59.99646020983193,2024-09-13 11h31.25.256712 -0400,
3,0,3,space,1.3832365000271238,None,0.2683333333333333,0.7811382000218146,return,0.11953969998285174,None,,,,1,0,1,0,1,0,1,0,3,0,3,0,184.26904360001208,,,,,,,,,,,,,,,,,,,,,,,,,,,,,,,,184.26386200002162,184.26904360001208,184.26904360001208,184.26904360001208,0.007986600045114756,184.26904360001208,185.06993830000283,185.06993830000283,185.1914129999932,0.2683333333333333,0.7811382000218146,return,0.11953969998285174,None,185.1916898000054,185.2034559000167,185.72007639997173,185.69085429998813,,,,,,,,,,,,,,,,,,,,,212124,001,2024-09-13_11h31.20.219,gradcptpy,2024.2.1post4,59.99646020983193,2024-09-13 11h31.25.256712 -0400,
4,0,4,space,1.3832365000271238,None,0.7216666666666667,0.380472999997437,return,0.004984700004570186,None,,,,1,0,1,0,1,0,1,0,4,0,4,0,185.72007639997173,,,,,,,,,,,,,,,,,,,,,,,,,,,,,,,,185.6996525999857,185.72007639997173,185.72007639997173,185.72007639997173,0.00881249998928979,185.72007639997173,186.10443950002082,186.10443950002082,186.12553419999313,0.7216666666666667,0.380472999997437,return,0.004984700004570186,None,186.12574210000457,186.13778930000262,186.65457199997036,186.62528480001492,,,,,,,,,,,,,,,,,,,,,212124,001,2024-09-13_11h31.20.219,gradcptpy,2024.2.1post4,59.99646020983193,2024-09-13 11h31.25.256712 -0400,
5,0,5,space,1.3832365000271238,None,0.39166666666666666,0.5475341000128537,return,0.02347610000288114,None,,,,1,0,1,0,1,0,1,0,5,0,5,0,186.65457199997036,,,,,,,,,,,,,,,,,,,,,,,,,,,,,,,,186.63474609999685,186.65457199997036,186.65457199997036,186.65457199997036,0.009481299959588796,186.65457199997036,187.20571090001613,187.20571090001613,187.24342479999177,0.39166666666666666,0.5475341000128537,return,0.02347610000288114,None,187.2436394999968,187.2557202000171,187.7724954999867,187.74285520002013,,,,,,,,,,,,,,,,,,,,,212124,001,2024-09-13_11h31.20.219,gradcptpy,2024.2.1post4,59.99646020983193,2024-09-13 11h31.25.256712 -0400,
1,0,1,space,1.3832365000271238,None,,,,,,,,,1,0,1,0,1,0,1,0,,,,,,,,,,,,,,,,,,,,,,,,,,,,,,,,,,,,,,,,,,,,,,,,,,,,,,,187.75003170000855,187.7724954999867,192.74806219997117,,,,,,,,,,,,,,,,,,212124,001,2024-09-13_11h31.20.219,gradcptpy,2024.2.1post4,59.99646020983193,2024-09-13 11h31.25.256712 -0400,
0,0,0,space,1.3832365000271238,None,0.6683333333333333,2.5801996999653056,return,0.06087579997256398,None,,,,1,0,1,0,2,0,2,0,0,0,0,0,206.64245619997382,,,,,,,,,,,,,,,,,,,,,,,,,,,,,192.7482352000079,192.7619440999697,206.61667089996627,206.62462959997356,206.64245619997382,206.64245619997382,206.64245619997382,0.007966400007717311,206.64245619997382,209.22912319999887,209.22912319999887,209.30009049997898,0.6683333333333333,2.5801996999653056,return,0.06087579997256398,None,209.30031279998366,209.31247190001886,209.82911469996907,209.79980530001922,,,,,,,,,,,,,,,,,,,,,212124,001,2024-09-13_11h31.20.219,gradcptpy,2024.2.1post4,59.99646020983193,2024-09-13 11h31.25.256712 -0400,
1,0,1,space,1.3832365000271238,None,0.3833333333333333,0.4644648000248708,return,None,None,,,,1,0,1,0,2,0,2,0,1,0,1,0,209.82911469996907,,,,,,,,,,,,,,,,,,,,,,,,,,,,,,,,209.80888520000735,209.82911469996907,209.82911469996907,209.82911469996907,0.009093400032725185,209.82911469996907,210.29690640000626,210.29690640000626,210.38471790001495,0.3833333333333333,0.4644648000248708,return,None,None,210.38491789996624,210.39690439996775,210.91379179997602,210.88531019998481,,,,,,,,,,,,,,,,,,,,,212124,001,2024-09-13_11h31.20.219,gradcptpy,2024.2.1post4,59.99646020983193,2024-09-13 11h31.25.256712 -0400,
2,0,2,space,1.3832365000271238,None,0.65,0.4297772999852896,return,0.0015228000120259821,None,,,,1,0,1,0,2,0,2,0,2,0,2,0,210.91379179997602,,,,,,,,,,,,,,,,,,,,,,,,,,,,,,,,210.89364189998014,210.91379179997602,210.91379179997602,210.91379179997602,0.008347900002263486,210.91379179997602,211.34801369998604,211.34801369998604,211.35268569999607,0.65,0.4297772999852896,return,0.0015228000120259821,None,211.35290409997106,211.36471049999818,211.8814577999874,211.85217899997951,,,,,,,,,,,,,,,,,,,,,212124,001,2024-09-13_11h31.20.219,gradcptpy,2024.2.1post4,59.99646020983193,2024-09-13 11h31.25.256712 -0400,
3,0,3,space,1.3832365000271238,None,0.45,0.4140385999926366,return,None,None,,,,1,0,1,0,2,0,2,0,3,0,3,0,211.8814577999874,,,,,,,,,,,,,,,,,,,,,,,,,,,,,,,,211.86096869996982,211.8814577999874,211.8814577999874,211.8814577999874,0.008804699988104403,211.8814577999874,212.299226299976,212.299226299976,212.35355739999795,0.45,0.4140385999926366,return,None,None,212.35377619997598,212.36571360001108,212.88244099996518,212.85349429998314,,,,,,,,,,,,,,,,,,,,,212124,001,2024-09-13_11h31.20.219,gradcptpy,2024.2.1post4,59.99646020983193,2024-09-13 11h31.25.256712 -0400,
4,0,4,space,1.3832365000271238,None,0.56,0.4145719999796711,return,0.4095223000040278,None,,,,1,0,1,0,2,0,2,0,4,0,4,0,212.88244099996518,,,,,,,,,,,,,,,,,,,,,,,,,,,,,,,,212.86222110001836,212.88244099996518,212.88244099996518,212.88244099996518,0.00875320000341162,212.88244099996518,213.30013499996858,213.30013499996858,213.7217173000099,0.56,0.4145719999796711,return,0.4095223000040278,None,213.72193679999327,213.73397020000266,214.25062619999517,214.2212836999679,,,,,,,,,,,,,,,,,,,,,212124,001,2024-09-13_11h31.20.219,gradcptpy,2024.2.1post4,59.99646020983193,2024-09-13 11h31.25.256712 -0400,
5,0,5,space,1.3832365000271238,None,0.395,0.8476064000278711,return,0.047539599996525794,None,,,,1,0,1,0,2,0,2,0,5,0,5,0,214.25062619999517,,,,,,,,,,,,,,,,,,,,,,,,,,,,,,,,214.2309453000198,214.25062619999517,214.25062619999517,214.25062619999517,0.009678000002168119,214.25062619999517,215.10191690002102,215.10191690002102,215.15681600000244,0.395,0.8476064000278711,return,0.047539599996525794,None,215.1570606000023,215.1688259000075,215.66938129998744,215.65595099999337,,,,,,,,,,,,,,,,,,,,,212124,001,2024-09-13_11h31.20.219,gradcptpy,2024.2.1post4,59.99646020983193,2024-09-13 11h31.25.256712 -0400,
2,0,2,space,1.3832365000271238,None,,,,,,,,,1,0,1,0,2,0,2,0,,,,,,,,,,,,,,,,,,,,,,,,,,,,,,,,,,,,,,,,,,,,,,,,,,,,,,,215.65853149996838,,215.65856419998454,,,,,,,,,,,,,,,,,,212124,001,2024-09-13_11h31.20.219,gradcptpy,2024.2.1post4,59.99646020983193,2024-09-13 11h31.25.256712 -0400,
1,0,1,space,1.3832365000271238,None,,,,,,space,1.1601719999453053,None,1,0,1,0,,,,,,,,,,,,,,,,,,,,,,,,,,,,,,,,,,,,,,,,,,,,,,,,,,,,,,,,,,,,,,215.66553970001405,215.66938129998744,215.66938129998744,216.8411304000183,space,1.1601719999453053,None,,,,,,,,,,,212124,001,2024-09-13_11h31.20.219,gradcptpy,2024.2.1post4,59.99646020983193,2024-09-13 11h31.25.256712 -0400,
,,,,,,,,,,,,,,,,,,,,,,,,,,,,,,,,,,,,,,,,,,,,,,,,,,,,,,,,,,,,,,,,,,,,,,,,,,,,,,,,,,,,,,216.84610089997295,216.8537085999851,216.8537085999851,217.92552990000695,space,1.0559438000200316,None,,,,212124,001,2024-09-13_11h31.20.219,gradcptpy,2024.2.1post4,59.99646020983193,2024-09-13 11h31.25.256712 -0400,
,,,,,,,,,,,,,,,,,,,,,,,,,,,,,,,,,,,,,,,,,,,,,,,,,,,,,,,,,,,,,,,,,,,,,,,,,,,,,,,,,,,,,,,,,,,,,217.92558510001982,217.93846410000697,222.93007990001934,212124,001,2024-09-13_11h31.20.219,gradcptpy,2024.2.1post4,59.99646020983193,2024-09-13 11h31.25.256712 -0400,
