thisN,thisTrialN,thisRepN,block_start_key_resp.keys,block_start_key_resp.rt,block_start_key_resp.duration,es_gradcpt_slider.response,es_gradcpt_slider.rt,es_gradcpt_key_resp.keys,es_gradcpt_key_resp.rt,es_gradcpt_key_resp.duration,blocks.thisRepN,blocks.thisTrialN,blocks.thisN,blocks.thisIndex,block_rest_key_resp.keys,block_rest_key_resp.rt,block_rest_key_resp.duration,trials.thisRepN,trials.thisTrialN,trials.thisN,trials.thisIndex,ES_loop.thisRepN,ES_loop.thisTrialN,ES_loop.thisN,ES_loop.thisIndex,thisRow.t,notes,estimate_frame_rate.started,frame_rate_prompt.started,estimate_frame_rate.stopped,welcome.started,welcome_key_resp.started,welcome_text.started,welcome.stopped,welcome_key_resp.keys,welcome_key_resp.rt,welcome_key_resp.duration,gradcpt_prep.started,gradcpt_prep_text.started,key_resp.started,gradcpt_prep.stopped,key_resp.keys,key_resp.rt,key_resp.duration,block_start.started,black_start_text.started,block_start_key_resp.started,block_start.stopped,blocks.block_start_key_resp.keys,blocks.block_start_key_resp.rt,blocks.block_start_key_resp.duration,gradcpt_stim.started,gradcpt_image.started,gradcpt_stim.stopped,ES_gradcpt.started,es_text_component_gradcpt.started,es_gradcpt_slider.started,low_anchor_gradcpt.started,es_gradcpt_mouse.started,high_anchor_gradcpt.started,es_gradcpt_key_resp.started,enter_advance_gradcpt.started,ES_gradcpt.stopped,ES_loop.es_gradcpt_slider.response,ES_loop.es_gradcpt_slider.rt,ES_loop.es_gradcpt_key_resp.keys,ES_loop.es_gradcpt_key_resp.rt,ES_loop.es_gradcpt_key_resp.duration,ES_isi_gradcpt.started,es_gradcpt_isi_text.started,es_gradcpt_isi_text.stopped,ES_isi_gradcpt.stopped,prepare_trial.started,prepare_text.started,prepare_trial.stopped,block_rest.started,block_rest_text.started,block_rest_key_resp.started,block_rest.stopped,blocks.block_rest_key_resp.keys,blocks.block_rest_key_resp.rt,blocks.block_rest_key_resp.duration,prepare_block.started,participant,session,date,expName,psychopyVersion,frameRate,expStart,
,,,,,,,,,,,,,,,,,,,,,,,,,,,,0.016999299987219274,0.031182499951682985,5.003789099981077,,,,,,,,,,,,,,,,,,,,,,,,,,,,,,,,,,,,,,,,,,,,,,,,,,,,,,440592,001,2024-09-13_11h22.41.257,gradcptpy,2024.2.1post4,59.94301817964094,2024-09-13 11h22.47.268702 -0400,
,,,,,,,,,,,,,,,,,,,,,,,,,,,,,,,5.004053599957842,5.016875399975106,5.016875399975106,7.544186899962369,space,2.5131345000118017,None,,,,,,,,,,,,,,,,,,,,,,,,,,,,,,,,,,,,,,,,,,,,,,,440592,001,2024-09-13_11h22.41.257,gradcptpy,2024.2.1post4,59.94301817964094,2024-09-13 11h22.47.268702 -0400,
,,,,,,,,,,,,,,,,,,,,,,,,,,,,,,,,,,,,,,7.5747552999528125,7.58589829999255,7.58589829999255,8.157902199949604,space,0.5640763000119478,None,,,,,,,,,,,,,,,,,,,,,,,,,,,,,,,,,,,,,,,,440592,001,2024-09-13_11h22.41.257,gradcptpy,2024.2.1post4,59.94301817964094,2024-09-13 11h22.47.268702 -0400,
0,0,0,space,1.0832291000406258,None,0.5233333333333333,2.5971723000402562,return,0.42669130000285804,None,0,0,0,0,,,,0,0,0,0,0,0,0,0,46.16040769999381,,,,,,,,,,,,,,,,,,,8.170458799984772,8.186527899990324,8.186527899990324,9.275620899978094,space,1.0832291000406258,None,9.318747299956158,9.338189099973533,46.126903199998196,46.14513449999504,46.16040769999381,46.16040769999381,46.16040769999381,0.018257300020195544,46.16040769999381,48.76384639996104,48.76384639996104,49.201956199947745,0.5233333333333333,2.5971723000402562,return,0.42669130000285804,None,49.20217679999769,49.214268999989145,49.7310086999787,49.70180949999485,,,,,,,,,,,,440592,001,2024-09-13_11h22.41.257,gradcptpy,2024.2.1post4,59.94301817964094,2024-09-13 11h22.47.268702 -0400,
1,0,1,space,1.0832291000406258,None,0.47833333333333333,0.44630760001018643,return,0.028681700001470745,None,0,0,0,0,,,,0,0,0,0,1,0,1,0,49.7310086999787,,,,,,,,,,,,,,,,,,,,,,,,,,,,,49.71397269994486,49.7310086999787,49.7310086999787,49.7310086999787,0.012185500003397465,49.7310086999787,50.18186849995982,50.18186849995982,50.21954379999079,0.47833333333333333,0.44630760001018643,return,0.028681700001470745,None,50.21974679996492,50.231994699977804,50.74861669994425,50.72016209998401,,,,,,,,,,,,440592,001,2024-09-13_11h22.41.257,gradcptpy,2024.2.1post4,59.94301817964094,2024-09-13 11h22.47.268702 -0400,
2,0,2,space,1.0832291000406258,None,0.5433333333333333,0.7967511999886483,return,0.0005664999480359256,None,0,0,0,0,,,,0,0,0,0,2,0,2,0,50.74861669994425,,,,,,,,,,,,,,,,,,,,,,,,,,,,,50.729696099995635,50.74861669994425,50.74861669994425,50.74861669994425,0.009558099962305278,50.74861669994425,51.5499853999936,51.5499853999936,51.55487469997024,0.5433333333333333,0.7967511999886483,return,0.0005664999480359256,None,51.55510319996392,51.566818699997384,52.08341119997203,52.05409089999739,,,,,,,,,,,,440592,001,2024-09-13_11h22.41.257,gradcptpy,2024.2.1post4,59.94301817964094,2024-09-13 11h22.47.268702 -0400,
3,0,3,space,1.0832291000406258,None,0.5516666666666666,0.6645377999520861,return,None,None,0,0,0,0,,,,0,0,0,0,3,0,3,0,52.08341119997203,,,,,,,,,,,,,,,,,,,,,,,,,,,,,52.064418599999044,52.08341119997203,52.08341119997203,52.08341119997203,0.010345300019253045,52.08341119997203,52.75141299999086,52.75141299999086,52.80577739997534,0.5516666666666666,0.6645377999520861,return,None,None,52.80598759994609,52.818000599974766,53.33474809996551,53.30579499999294,,,,,,,,,,,,440592,001,2024-09-13_11h22.41.257,gradcptpy,2024.2.1post4,59.94301817964094,2024-09-13 11h22.47.268702 -0400,
4,0,4,space,1.0832291000406258,None,0.29500000000000004,0.5309093000250868,return,0.3609779999824241,None,0,0,0,0,,,,0,0,0,0,4,0,4,0,53.33474809996551,,,,,,,,,,,,,,,,,,,,,,,,,,,,,53.31469639996067,53.33474809996551,53.33474809996551,53.33474809996551,0.008915400016121566,53.33474809996551,53.86916499998188,53.86916499998188,54.24076969997259,0.29500000000000004,0.5309093000250868,return,0.3609779999824241,None,54.2409724999452,54.25286839995533,54.76960329996655,54.74072189995786,,,,,,,,,,,,440592,001,2024-09-13_11h22.41.257,gradcptpy,2024.2.1post4,59.94301817964094,2024-09-13 11h22.47.268702 -0400,
5,0,5,space,1.0832291000406258,None,0.66,0.529701900028158,return,0.005191300006117672,None,0,0,0,0,,,,0,0,0,0,5,0,5,0,54.76960329996655,,,,,,,,,,,,,,,,,,,,,,,,,,,,,54.751289599982556,54.76960329996655,54.76960329996655,54.76960329996655,0.010583499970380217,54.76960329996655,55.30500489997212,55.30500489997212,55.32570519996807,0.66,0.529701900028158,return,0.005191300006117672,None,55.32596559997182,55.33767449995503,55.854037899989635,55.82497339998372,,,,,,,,,,,,440592,001,2024-09-13_11h22.41.257,gradcptpy,2024.2.1post4,59.94301817964094,2024-09-13 11h22.47.268702 -0400,
0,0,0,space,1.0832291000406258,None,,,,,,0,0,0,0,,,,0,0,0,0,,,,,,,,,,,,,,,,,,,,,,,,,,,,,,,,,,,,,,,,,,,,,,,,,,,,55.83169619995169,55.854037899989635,60.829995599982794,,,,,,,,,440592,001,2024-09-13_11h22.41.257,gradcptpy,2024.2.1post4,59.94301817964094,2024-09-13 11h22.47.268702 -0400,
0,0,0,space,1.0832291000406258,None,0.5683333333333334,18.141864000004716,return,0.21688830002676696,None,0,0,0,0,,,,1,0,1,0,0,0,0,0,87.02106839994667,,,,,,,,,,,,,,,,,,,,,,,,,,60.83017509995261,60.84370919998037,86.99919219996082,87.00969649996841,87.02106839994667,87.02106839994667,87.02106839994667,0.010517599992454052,87.02106839994667,105.17537409998477,105.17537409998477,105.39587319997372,0.5683333333333334,18.141864000004716,return,0.21688830002676696,None,105.39611369994236,105.40758749999804,105.92568849999225,105.89715709997108,,,,,,,,,,,,440592,001,2024-09-13_11h22.41.257,gradcptpy,2024.2.1post4,59.94301817964094,2024-09-13 11h22.47.268702 -0400,
1,0,1,space,1.0832291000406258,None,0.43,2.131143799982965,return,0.13039569999091327,None,0,0,0,0,,,,1,0,1,0,1,0,1,0,105.92568849999225,,,,,,,,,,,,,,,,,,,,,,,,,,,,,105.90878919995157,105.92568849999225,105.92568849999225,105.92568849999225,0.011648899991996586,105.92568849999225,108.06192179996287,108.06192179996287,108.19898189994274,0.43,2.131143799982965,return,0.13039569999091327,None,108.19921669998439,108.21207739994861,108.72789019998163,108.69932859996334,,,,,,,,,,,,440592,001,2024-09-13_11h22.41.257,gradcptpy,2024.2.1post4,59.94301817964094,2024-09-13 11h22.47.268702 -0400,
2,0,2,space,1.0832291000406258,None,0.6783333333333333,1.9818306000088342,return,0.09720999997807667,None,0,0,0,0,,,,1,0,1,0,2,0,2,0,108.72789019998163,,,,,,,,,,,,,,,,,,,,,,,,,,,,,108.70841759996256,108.72789019998163,108.72789019998163,108.72789019998163,0.00910440000006929,108.72789019998163,110.71501899999566,110.71501899999566,110.81859069998609,0.6783333333333333,1.9818306000088342,return,0.09720999997807667,None,110.81881639995845,110.83157139999093,111.34792229998857,111.31947579997359,,,,,,,,,,,,440592,001,2024-09-13_11h22.41.257,gradcptpy,2024.2.1post4,59.94301817964094,2024-09-13 11h22.47.268702 -0400,
3,0,3,space,1.0832291000406258,None,0.28833333333333333,0.8472312999656424,return,0.053905799984931946,None,0,0,0,0,,,,1,0,1,0,3,0,3,0,111.34792229998857,,,,,,,,,,,,,,,,,,,,,,,,,,,,,111.32747779996134,111.34792229998857,111.34792229998857,111.34792229998857,0.00801379996119067,111.34792229998857,112.19817779998994,112.19817779998994,112.2556466999813,0.28833333333333333,0.8472312999656424,return,0.053905799984931946,None,112.25585169997066,112.26603159995284,112.78153349994682,112.75430489995051,,,,,,,,,,,,440592,001,2024-09-13_11h22.41.257,gradcptpy,2024.2.1post4,59.94301817964094,2024-09-13 11h22.47.268702 -0400,
4,0,4,space,1.0832291000406258,None,0.5783333333333334,0.6469574999646284,return,0.13787540001794696,None,0,0,0,0,,,,1,0,1,0,4,0,4,0,112.78153349994682,,,,,,,,,,,,,,,,,,,,,,,,,,,,,112.76296299998648,112.78153349994682,112.78153349994682,112.78153349994682,0.00867629999993369,112.78153349994682,113.43417929997668,113.43417929997668,113.58955579996109,0.5783333333333334,0.6469574999646284,return,0.13787540001794696,None,113.58978399995249,113.60121039999649,114.11720919999061,114.08951399999205,,,,,,,,,,,,440592,001,2024-09-13_11h22.41.257,gradcptpy,2024.2.1post4,59.94301817964094,2024-09-13 11h22.47.268702 -0400,
5,0,5,space,1.0832291000406258,None,0.54,1.5287959999986924,return,0.040321699983906,None,0,0,0,0,,,,1,0,1,0,5,0,5,0,114.11720919999061,,,,,,,,,,,,,,,,,,,,,,,,,,,,,114.10076169995591,114.11720919999061,114.11720919999061,114.11720919999061,0.011271800030954182,114.11720919999061,115.65178289997857,115.65178289997857,115.70712069998262,0.54,1.5287959999986924,return,0.040321699983906,None,115.707386199967,115.72011249995558,116.23583159997361,116.2076288999524,,,,,,,,,,,,440592,001,2024-09-13_11h22.41.257,gradcptpy,2024.2.1post4,59.94301817964094,2024-09-13 11h22.47.268702 -0400,
1,0,1,space,1.0832291000406258,None,,,,,,0,0,0,0,,,,1,0,1,0,,,,,,,,,,,,,,,,,,,,,,,,,,,,,,,,,,,,,,,,,,,,,,,,,,,,116.21453879994806,116.23583159997361,121.21122429997195,,,,,,,,,440592,001,2024-09-13_11h22.41.257,gradcptpy,2024.2.1post4,59.94301817964094,2024-09-13 11h22.47.268702 -0400,
0,0,0,space,1.0832291000406258,None,0.67,1.8793101999908686,return,0.38638699997682124,None,0,0,0,0,,,,2,0,2,0,0,0,0,0,123.65980519994628,,,,,,,,,,,,,,,,,,,,,,,,,,121.21139649994439,121.22486389998812,123.63399559998652,123.64324309997028,123.65980519994628,123.65980519994628,123.65980519994628,0.009283999970648438,123.65980519994628,125.54573589999927,125.54573589999927,125.93404429999646,0.67,1.8793101999908686,return,0.38638699997682124,None,125.93429289996857,125.94609829998808,126.46274009998888,126.4337067999877,,,,,,,,,,,,440592,001,2024-09-13_11h22.41.257,gradcptpy,2024.2.1post4,59.94301817964094,2024-09-13 11h22.47.268702 -0400,
1,0,1,space,1.0832291000406258,None,0.45,0.4975152999977581,return,0.028447199962101877,None,0,0,0,0,,,,2,0,2,0,1,0,1,0,126.46274009998888,,,,,,,,,,,,,,,,,,,,,,,,,,,,,126.44156179996207,126.46274009998888,126.46274009998888,126.46274009998888,0.007870799978263676,126.46274009998888,126.96382449998055,126.96382449998055,127.0018366999575,0.45,0.4975152999977581,return,0.028447199962101877,None,127.00205189996632,127.01385069999378,127.53054149996024,127.50159029994393,,,,,,,,,,,,440592,001,2024-09-13_11h22.41.257,gradcptpy,2024.2.1post4,59.94301817964094,2024-09-13 11h22.47.268702 -0400,
2,0,2,space,1.0832291000406258,None,0.6116666666666667,0.5141853999812156,return,0.02337850001640618,None,0,0,0,0,,,,2,0,2,0,2,0,2,0,127.53054149996024,,,,,,,,,,,,,,,,,,,,,,,,,,,,,127.51055309997173,127.53054149996024,127.53054149996024,127.53054149996024,0.008979000034742057,127.53054149996024,128.0483465999714,128.0483465999714,128.08629079995444,0.6116666666666667,0.5141853999812156,return,0.02337850001640618,None,128.08650129998568,128.09849029994803,128.61536779999733,128.58644649997586,,,,,,,,,,,,440592,001,2024-09-13_11h22.41.257,gradcptpy,2024.2.1post4,59.94301817964094,2024-09-13 11h22.47.268702 -0400,
3,0,3,space,1.0832291000406258,None,0.5433333333333333,0.6135402000509202,return,0.03953680000267923,None,0,0,0,0,,,,2,0,2,0,3,0,3,0,128.61536779999733,,,,,,,,,,,,,,,,,,,,,,,,,,,,,128.59549399995012,128.61536779999733,128.61536779999733,128.61536779999733,0.00907039997400716,128.61536779999733,129.23283639998408,129.23283639998408,129.2874958999455,0.5433333333333333,0.6135402000509202,return,0.03953680000267923,None,129.2876997999847,129.29966520000016,129.8162954999716,129.78731229994446,,,,,,,,,,,,440592,001,2024-09-13_11h22.41.257,gradcptpy,2024.2.1post4,59.94301817964094,2024-09-13 11h22.47.268702 -0400,
4,0,4,space,1.0832291000406258,None,0.32333333333333336,0.5641025999793783,return,0.00804809998953715,None,0,0,0,0,,,,2,0,2,0,4,0,4,0,129.8162954999716,,,,,,,,,,,,,,,,,,,,,,,,,,,,,129.7963489999529,129.8162954999716,129.8162954999716,129.8162954999716,0.009051500004716218,129.8162954999716,130.3842354999506,130.3842354999506,130.4057415999705,0.32333333333333336,0.5641025999793783,return,0.00804809998953715,None,130.40596999996342,130.4176318999962,130.93422469997313,130.90520479995757,,,,,,,,,,,,440592,001,2024-09-13_11h22.41.257,gradcptpy,2024.2.1post4,59.94301817964094,2024-09-13 11h22.47.268702 -0400,
5,0,5,space,1.0832291000406258,None,0.5483333333333333,0.5137788000283763,return,0.08036339998943731,None,0,0,0,0,,,,2,0,2,0,5,0,5,0,130.93422469997313,,,,,,,,,,,,,,,,,,,,,,,,,,,,,130.91451609996147,130.93422469997313,130.93422469997313,130.93422469997313,0.009324899991042912,130.93422469997313,131.45212779997382,131.45212779997382,131.54003539995756,0.5483333333333333,0.5137788000283763,return,0.08036339998943731,None,131.54025639995234,131.55239989998518,132.0688490999746,132.0399791999953,,,,,,,,,,,,440592,001,2024-09-13_11h22.41.257,gradcptpy,2024.2.1post4,59.94301817964094,2024-09-13 11h22.47.268702 -0400,
2,0,2,space,1.0832291000406258,None,,,,,,0,0,0,0,,,,2,0,2,0,,,,,,,,,,,,,,,,,,,,,,,,,,,,,,,,,,,,,,,,,,,,,,,,,,,,132.04288869997254,,132.0429376999964,,,,,,,,,440592,001,2024-09-13_11h22.41.257,gradcptpy,2024.2.1post4,59.94301817964094,2024-09-13 11h22.47.268702 -0400,
,,,,,,,,,,,,,,,,,,,,,,,,,,,,,,,,,,,,,,,,,,,,,,,,,,,,,,,,,,,,,,,,,,,,,,,,,,,,132.05345029995078,132.0688490999746,132.0688490999746,133.94191029999638,space,1.863416700041853,None,133.94198469998082,,,,,,,,
