thisN,thisTrialN,thisRepN,block_start_key_resp.keys,block_start_key_resp.rt,block_start_key_resp.duration,es_gradcpt_slider.response,es_gradcpt_slider.rt,es_gradcpt_key_resp.keys,es_gradcpt_key_resp.rt,es_gradcpt_key_resp.duration,block_rest_key_resp.keys,block_rest_key_resp.rt,block_rest_key_resp.duration,blocks.thisRepN,blocks.thisTrialN,blocks.thisN,blocks.thisIndex,trials.thisRepN,trials.thisTrialN,trials.thisN,trials.thisIndex,ES_loop.thisRepN,ES_loop.thisTrialN,ES_loop.thisN,ES_loop.thisIndex,thisRow.t,notes,estimate_frame_rate.started,frame_rate_prompt.started,estimate_frame_rate.stopped,welcome.started,welcome_key_resp.started,welcome_text.started,welcome.stopped,welcome_key_resp.keys,welcome_key_resp.rt,welcome_key_resp.duration,gradcpt_prep.started,gradcpt_prep_text.started,key_resp.started,gradcpt_prep.stopped,key_resp.keys,key_resp.rt,key_resp.duration,block_start.started,black_start_text.started,block_start_key_resp.started,block_start.stopped,blocks.block_start_key_resp.keys,blocks.block_start_key_resp.rt,blocks.block_start_key_resp.duration,gradcpt_stim.started,gradcpt_image.started,gradcpt_stim.stopped,ES_gradcpt.started,es_text_component_gradcpt.started,es_gradcpt_slider.started,low_anchor_gradcpt.started,es_gradcpt_mouse.started,high_anchor_gradcpt.started,es_gradcpt_key_resp.started,enter_advance_gradcpt.started,ES_gradcpt.stopped,ES_loop.es_gradcpt_slider.response,ES_loop.es_gradcpt_slider.rt,ES_loop.es_gradcpt_key_resp.keys,ES_loop.es_gradcpt_key_resp.rt,ES_loop.es_gradcpt_key_resp.duration,ES_isi_gradcpt.started,es_gradcpt_isi_text.started,es_gradcpt_isi_text.stopped,ES_isi_gradcpt.stopped,prepare.started,prepare_text.started,prepare.stopped,block_rest.started,block_rest_text.started,block_rest_key_resp.started,block_rest.stopped,blocks.block_rest_key_resp.keys,blocks.block_rest_key_resp.rt,blocks.block_rest_key_resp.duration,debrief.started,debrief_text.started,debrief_resp.started,debrief.stopped,debrief_resp.keys,debrief_resp.rt,debrief_resp.duration,Thanks.started,thanks_text.started,Thanks.stopped,participant,session,date,expName,psychopyVersion,frameRate,expStart,
,,,,,,,,,,,,,,,,,,,,,,,,,,,,0.018829400010872632,0.0322798999841325,5.005004699982237,,,,,,,,,,,,,,,,,,,,,,,,,,,,,,,,,,,,,,,,,,,,,,,,,,,,,,,,,,,,,,,939681,001,2024-09-13_11h13.05.442,gradcptpy,2024.2.1post4,59.92336998299895,2024-09-13 11h13.10.886159 -0400,
,,,,,,,,,,,,,,,,,,,,,,,,,,,,,,,5.005249099980574,5.018609600025229,5.018609600025229,5.6598335999879055,space,0.6257228999747895,None,,,,,,,,,,,,,,,,,,,,,,,,,,,,,,,,,,,,,,,,,,,,,,,,,,,,,,,,939681,001,2024-09-13_11h13.05.442,gradcptpy,2024.2.1post4,59.92336998299895,2024-09-13 11h13.10.886159 -0400,
,,,,,,,,,,,,,,,,,,,,,,,,,,,,,,,,,,,,,,5.6912930000107735,5.701945499982685,5.701945499982685,6.257365000026766,space,0.5423446000204422,None,,,,,,,,,,,,,,,,,,,,,,,,,,,,,,,,,,,,,,,,,,,,,,,,,939681,001,2024-09-13_11h13.05.442,gradcptpy,2024.2.1post4,59.92336998299895,2024-09-13 11h13.10.886159 -0400,
0,0,0,space,1.7386480999994092,None,0.63,1.1674737999564968,return,0.348885599989444,None,,,,0,0,0,0,0,0,0,0,0,0,0,0,39.187828099995386,,,,,,,,,,,,,,,,,,,6.2701636999845505,6.286069000023417,6.286069000023417,8.027415000018664,space,1.7386480999994092,None,8.076218499976676,8.088364200026263,39.149621599994134,39.16617739998037,39.187828099995386,39.187828099995386,39.187828099995386,0.01657039998099208,39.187828099995386,40.35636209999211,40.35636209999211,40.71126319997711,0.63,1.1674737999564968,return,0.348885599989444,None,40.71147649997147,40.72354079998331,41.24011660000542,41.210974999994505,,,,,,,,,,,,,,,,,,,,,939681,001,2024-09-13_11h13.05.442,gradcptpy,2024.2.1post4,59.92336998299895,2024-09-13 11h13.10.886159 -0400,
1,0,1,space,1.7386480999994092,None,0.42666666666666664,0.44655460002832115,return,0.45423070003744215,None,,,,0,0,0,0,0,0,0,0,1,0,1,0,41.24011660000542,,,,,,,,,,,,,,,,,,,,,,,,,,,,,41.222491699969396,41.24011660000542,41.24011660000542,41.24011660000542,0.011543699947651476,41.24011660000542,41.691074099973775,41.691074099973775,42.16249939997215,0.42666666666666664,0.44655460002832115,return,0.45423070003744215,None,42.162730299984105,42.175128899980336,42.691621500009205,42.662310099985916,,,,,,,,,,,,,,,,,,,,,939681,001,2024-09-13_11h13.05.442,gradcptpy,2024.2.1post4,59.92336998299895,2024-09-13 11h13.10.886159 -0400,
2,0,2,space,1.7386480999994092,None,0.7066666666666667,0.4971446999697946,return,0.3322275999817066,None,,,,0,0,0,0,0,0,0,0,2,0,2,0,42.691621500009205,,,,,,,,,,,,,,,,,,,,,,,,,,,,,42.67120189999696,42.691621500009205,42.691621500009205,42.691621500009205,0.008907800016459078,42.691621500009205,43.192732999974396,43.192732999974396,43.53083419997711,0.7066666666666667,0.4971446999697946,return,0.3322275999817066,None,43.53104620001977,43.5430223000003,44.05968840001151,44.03064920002362,,,,,,,,,,,,,,,,,,,,,939681,001,2024-09-13_11h13.05.442,gradcptpy,2024.2.1post4,59.92336998299895,2024-09-13 11h13.10.886159 -0400,
3,0,3,space,1.7386480999994092,None,0.5466666666666666,0.4971965000149794,return,0.3448445000103675,None,,,,0,0,0,0,0,0,0,0,3,0,3,0,44.05968840001151,,,,,,,,,,,,,,,,,,,,,,,,,,,,,44.0401374999783,44.05968840001151,44.05968840001151,44.05968840001151,0.009505900030490011,44.05968840001151,44.56080959999235,44.56080959999235,44.915894699981436,0.5466666666666666,0.4971965000149794,return,0.3448445000103675,None,44.91612880001776,44.92798540001968,45.44453929999145,45.41529440000886,,,,,,,,,,,,,,,,,,,,,939681,001,2024-09-13_11h13.05.442,gradcptpy,2024.2.1post4,59.92336998299895,2024-09-13 11h13.10.886159 -0400,
4,0,4,space,1.7386480999994092,None,0.46166666666666667,0.5477219999884255,return,0.349675000004936,None,,,,0,0,0,0,0,0,0,0,4,0,4,0,45.44453929999145,,,,,,,,,,,,,,,,,,,,,,,,,,,,,45.4249439999694,45.44453929999145,45.44453929999145,45.44453929999145,0.009672699961811304,45.44453929999145,45.99568440002622,45.99568440002622,46.350709999969695,0.46166666666666667,0.5477219999884255,return,0.349675000004936,None,46.35093750001397,46.36255229997914,46.879479600000195,46.85033360001398,,,,,,,,,,,,,,,,,,,,,939681,001,2024-09-13_11h13.05.442,gradcptpy,2024.2.1post4,59.92336998299895,2024-09-13 11h13.10.886159 -0400,
5,0,5,space,1.7386480999994092,None,0.6166666666666667,0.4965342999785207,return,0.32437029998982325,None,,,,0,0,0,0,0,0,0,0,5,0,5,0,46.879479600000195,,,,,,,,,,,,,,,,,,,,,,,,,,,,,46.86068049998721,46.879479600000195,46.879479600000195,46.879479600000195,0.010364699992351234,46.879479600000195,47.38058649998857,47.38058649998857,47.719176699989475,0.6166666666666667,0.4965342999785207,return,0.32437029998982325,None,47.719425500021316,47.73099740000907,48.24755859997822,48.21851909998804,,,,,,,,,,,,,,,,,,,,,939681,001,2024-09-13_11h13.05.442,gradcptpy,2024.2.1post4,59.92336998299895,2024-09-13 11h13.10.886159 -0400,
0,0,0,space,1.7386480999994092,None,,,,,,,,,0,0,0,0,0,0,0,0,,,,,,,,,,,,,,,,,,,,,,,,,,,,,,,,,,,,,,,,,,,,,,,,,,,,48.22604809998302,48.24755859997822,53.22351039998466,,,,,,,,,,,,,,,,,,939681,001,2024-09-13_11h13.05.442,gradcptpy,2024.2.1post4,59.92336998299895,2024-09-13 11h13.10.886159 -0400,
0,0,0,space,1.7386480999994092,None,0.6683333333333333,1.623169999977108,return,0.37528979999478906,None,,,,0,0,0,0,1,0,1,0,0,0,0,0,80.21480549999978,,,,,,,,,,,,,,,,,,,,,,,,,,53.223680199997034,53.23716710001463,80.19490770000266,80.20447789999889,80.21480549999978,80.21480549999978,80.21480549999978,0.009587100008502603,80.21480549999978,81.85081939998781,81.85081939998781,82.23925589997089,0.6683333333333333,1.623169999977108,return,0.37528979999478906,None,82.23949409998022,82.25109410000732,82.76756860001478,82.73873959999764,,,,,,,,,,,,,,,,,,,,,939681,001,2024-09-13_11h13.05.442,gradcptpy,2024.2.1post4,59.92336998299895,2024-09-13 11h13.10.886159 -0400,
1,0,1,space,1.7386480999994092,None,0.33666666666666667,0.664468000002671,return,0.3309871999663301,None,,,,0,0,0,0,1,0,1,0,1,0,1,0,82.76756860001478,,,,,,,,,,,,,,,,,,,,,,,,,,,,,82.74690450000344,82.76756860001478,82.76756860001478,82.76756860001478,0.008181599958334118,82.76756860001478,83.43554679997033,83.43554679997033,83.77383869996993,0.33666666666666667,0.664468000002671,return,0.3309871999663301,None,83.7740499000065,83.78592759999447,84.30251070001395,84.27367409999715,,,,,,,,,,,,,,,,,,,,,939681,001,2024-09-13_11h13.05.442,gradcptpy,2024.2.1post4,59.92336998299895,2024-09-13 11h13.10.886159 -0400,
2,0,2,space,1.7386480999994092,None,0.645,0.513384899997618,return,0.8660243999911472,None,,,,0,0,0,0,1,0,1,0,2,0,2,0,84.30251070001395,,,,,,,,,,,,,,,,,,,,,,,,,,,,,84.2826240999857,84.30251070001395,84.30251070001395,84.30251070001395,0.008970199967734516,84.30251070001395,84.82041149999714,84.82041149999714,85.69245309999678,0.645,0.513384899997618,return,0.8660243999911472,None,85.69267030002084,85.70474120002473,86.22136750002392,86.19233970000641,,,,,,,,,,,,,,,,,,,,,939681,001,2024-09-13_11h13.05.442,gradcptpy,2024.2.1post4,59.92336998299895,2024-09-13 11h13.10.886159 -0400,
3,0,3,space,1.7386480999994092,None,0.41333333333333333,0.4638318999786861,return,0.43655159999616444,None,,,,0,0,0,0,1,0,1,0,3,0,3,0,86.22136750002392,,,,,,,,,,,,,,,,,,,,,,,,,,,,,86.20179259998258,86.22136750002392,86.22136750002392,86.22136750002392,0.009474399965256453,86.22136750002392,86.68900740001118,86.68900740001118,87.12754100002348,0.41333333333333333,0.4638318999786861,return,0.43655159999616444,None,87.12776130001293,87.13955730001908,87.64012090000324,87.62732660002075,,,,,,,,,,,,,,,,,,,,,939681,001,2024-09-13_11h13.05.442,gradcptpy,2024.2.1post4,59.92336998299895,2024-09-13 11h13.10.886159 -0400,
4,0,4,space,1.7386480999994092,None,0.63,0.5136954000336118,return,0.352170699974522,None,,,,0,0,0,0,1,0,1,0,4,0,4,0,87.64012090000324,,,,,,,,,,,,,,,,,,,,,,,,,,,,,87.63517560000764,87.64012090000324,87.64012090000324,87.64012090000324,0.007865000050514936,87.64012090000324,88.17402199999196,88.17402199999196,88.52881819999311,0.63,0.5136954000336118,return,0.352170699974522,None,88.52903859998332,88.54109539999627,89.05777369998395,89.02871400001459,,,,,,,,,,,,,,,,,,,,,939681,001,2024-09-13_11h13.05.442,gradcptpy,2024.2.1post4,59.92336998299895,2024-09-13 11h13.10.886159 -0400,
5,0,5,space,1.7386480999994092,None,0.5,0.6634908000123687,return,0.33997359999921173,None,,,,0,0,0,0,1,0,1,0,5,0,5,0,89.05777369998395,,,,,,,,,,,,,,,,,,,,,,,,,,,,,89.03869279997889,89.05777369998395,89.05777369998395,89.05777369998395,0.009999100002460182,89.05777369998395,89.72563669999363,89.72563669999363,90.08081630000379,0.5,0.6634908000123687,return,0.33997359999921173,None,90.08102570002666,90.09267909999471,90.59336980001535,90.58012589998543,,,,,,,,,,,,,,,,,,,,,939681,001,2024-09-13_11h13.05.442,gradcptpy,2024.2.1post4,59.92336998299895,2024-09-13 11h13.10.886159 -0400,
1,0,1,space,1.7386480999994092,None,,,,,,,,,0,0,0,0,1,0,1,0,,,,,,,,,,,,,,,,,,,,,,,,,,,,,,,,,,,,,,,,,,,,,,,,,,,,90.58720100001665,90.59336980001535,95.58535850001499,,,,,,,,,,,,,,,,,,939681,001,2024-09-13_11h13.05.442,gradcptpy,2024.2.1post4,59.92336998299895,2024-09-13 11h13.10.886159 -0400,
0,0,0,space,1.7386480999994092,None,0.5833333333333334,1.9118419000296853,return,0.6474932999699377,None,,,,0,0,0,0,2,0,2,0,0,0,0,0,102.93922930001281,,,,,,,,,,,,,,,,,,,,,,,,,,95.58553209999809,95.59901710000122,102.91321460000472,102.92130320001161,102.93922930001281,102.93922930001281,102.93922930001281,0.008103800006210804,102.93922930001281,104.85848439997062,104.85848439997062,105.51366499997675,0.5833333333333334,1.9118419000296853,return,0.6474932999699377,None,105.5139055000036,105.52584000001661,106.04258140001912,106.01333460002206,,,,,,,,,,,,,,,,,,,,,939681,001,2024-09-13_11h13.05.442,gradcptpy,2024.2.1post4,59.92336998299895,2024-09-13 11h13.10.886159 -0400,
1,0,1,space,1.7386480999994092,None,0.44333333333333336,0.43071600003167987,return,0.3101244000135921,None,,,,0,0,0,0,2,0,2,0,1,0,1,0,106.04258140001912,,,,,,,,,,,,,,,,,,,,,,,,,,,,,106.0222621000139,106.04258140001912,106.04258140001912,106.04258140001912,0.00894299999345094,106.04258140001912,106.47698279999895,106.47698279999895,106.79879480000818,0.44333333333333336,0.43071600003167987,return,0.3101244000135921,None,106.79904249997344,106.81069790001493,107.32726639998145,107.29810469999211,,,,,,,,,,,,,,,,,,,,,939681,001,2024-09-13_11h13.05.442,gradcptpy,2024.2.1post4,59.92336998299895,2024-09-13 11h13.10.886159 -0400,
2,0,2,space,1.7386480999994092,None,0.8483333333333334,0.6473932000226341,return,0.34753359999740496,None,,,,0,0,0,0,2,0,2,0,2,0,2,0,107.32726639998145,,,,,,,,,,,,,,,,,,,,,,,,,,,,,107.30644309998024,107.32726639998145,107.32726639998145,107.32726639998145,0.008353099983651191,107.32726639998145,107.97844470001291,107.97844470001291,108.33323699998436,0.8483333333333334,0.6473932000226341,return,0.34753359999740496,None,108.33345829998143,108.34560220001731,108.86210610001581,108.83302399999229,,,,,,,,,,,,,,,,,,,,,939681,001,2024-09-13_11h13.05.442,gradcptpy,2024.2.1post4,59.92336998299895,2024-09-13 11h13.10.886159 -0400,
3,0,3,space,1.7386480999994092,None,0.53,0.5476437999750488,return,0.2921084000263363,None,,,,0,0,0,0,2,0,2,0,3,0,3,0,108.86210610001581,,,,,,,,,,,,,,,,,,,,,,,,,,,,,108.84224710002309,108.86210610001581,108.86210610001581,108.86210610001581,0.009240499988663942,108.86210610001581,109.41328280000016,109.41328280000016,109.71875080000609,0.53,0.5476437999750488,return,0.2921084000263363,None,109.71900089998962,109.7302979999804,110.24699379998492,110.21793129999423,,,,,,,,,,,,,,,,,,,,,939681,001,2024-09-13_11h13.05.442,gradcptpy,2024.2.1post4,59.92336998299895,2024-09-13 11h13.10.886159 -0400,
4,0,4,space,1.7386480999994092,None,0.5633333333333334,0.4472556000109762,return,0.30762849998427555,None,,,,0,0,0,0,2,0,2,0,4,0,4,0,110.24699379998492,,,,,,,,,,,,,,,,,,,,,,,,,,,,,110.22818889998598,110.24699379998492,110.24699379998492,110.24699379998492,0.010282000002916902,110.24699379998492,110.69797430001199,110.69797430001199,111.01928710000357,0.5633333333333334,0.4472556000109762,return,0.30762849998427555,None,111.01950330002,111.03163490002044,111.54838160000509,111.51923360000364,,,,,,,,,,,,,,,,,,,,,939681,001,2024-09-13_11h13.05.442,gradcptpy,2024.2.1post4,59.92336998299895,2024-09-13 11h13.10.886159 -0400,
5,0,5,space,1.7386480999994092,None,0.54,0.4806774000171572,return,0.29304870002670214,None,,,,0,0,0,0,2,0,2,0,5,0,5,0,111.54838160000509,,,,,,,,,,,,,,,,,,,,,,,,,,,,,111.52871129999403,111.54838160000509,111.54838160000509,111.54838160000509,0.009493199991993606,111.54838160000509,112.03276159998495,112.03276159998495,112.33795020001708,0.54,0.4806774000171572,return,0.29304870002670214,None,112.33819899999071,112.34991819999414,112.86649169999873,112.83736369997496,,,,,,,,,,,,,,,,,,,,,939681,001,2024-09-13_11h13.05.442,gradcptpy,2024.2.1post4,59.92336998299895,2024-09-13 11h13.10.886159 -0400,
2,0,2,space,1.7386480999994092,None,,,,,,,,,0,0,0,0,2,0,2,0,,,,,,,,,,,,,,,,,,,,,,,,,,,,,,,,,,,,,,,,,,,,,,,,,,,,112.84012629999779,,112.84015920001548,,,,,,,,,,,,,,,,,,939681,001,2024-09-13_11h13.05.442,gradcptpy,2024.2.1post4,59.92336998299895,2024-09-13 11h13.10.886159 -0400,
0,0,0,space,1.7386480999994092,None,,,,,,space,1.70051070000045,None,0,0,0,0,,,,,,,,,,,,,,,,,,,,,,,,,,,,,,,,,,,,,,,,,,,,,,,,,,,,,,,,,,,112.84978679998312,112.86649169999873,112.86649169999873,114.57296760001918,space,1.70051070000045,None,,,,,,,,,,,939681,001,2024-09-13_11h13.05.442,gradcptpy,2024.2.1post4,59.92336998299895,2024-09-13 11h13.10.886159 -0400,
0,0,0,space,2.4208685000194237,None,0.5783333333333334,1.1227310999529436,return,0.34412319998955354,None,,,,1,0,1,0,0,0,0,0,0,0,0,0,150.60656310000923,,,,,,,,,,,,,,,,,,,114.5731515000225,114.58546289999504,114.58546289999504,117.00910099997418,space,2.4208685000194237,None,117.05071799998404,117.07129150000401,150.58591219998198,150.59471360000316,150.60656310000923,150.60656310000923,150.60656310000923,0.008814800006803125,150.60656310000923,151.741789599997,151.741789599997,152.09692679997534,0.5783333333333334,1.1227310999529436,return,0.34412319998955354,None,152.09717229998205,152.1089361999766,152.62560059997486,152.59638120001182,,,,,,,,,,,,,,,,,,,,,939681,001,2024-09-13_11h13.05.442,gradcptpy,2024.2.1post4,59.92336998299895,2024-09-13 11h13.10.886159 -0400,
1,0,1,space,2.4208685000194237,None,0.43666666666666665,0.4302701000124216,return,0.2865929999970831,None,,,,1,0,1,0,0,0,0,0,1,0,1,0,152.62560059997486,,,,,,,,,,,,,,,,,,,,,,,,,,,,,152.605809199973,152.62560059997486,152.62560059997486,152.62560059997486,0.009443100017961115,152.62560059997486,153.0598041000194,153.0598041000194,153.3483037999831,0.43666666666666665,0.4302701000124216,return,0.2865929999970831,None,153.3485402999795,153.3601612999919,153.8608349999995,153.8476358000189,,,,,,,,,,,,,,,,,,,,,939681,001,2024-09-13_11h13.05.442,gradcptpy,2024.2.1post4,59.92336998299895,2024-09-13 11h13.10.886159 -0400,
2,0,2,space,2.4208685000194237,None,0.72,0.38074130000313744,return,0.3050641999579966,None,,,,1,0,1,0,0,0,0,0,2,0,2,0,153.8608349999995,,,,,,,,,,,,,,,,,,,,,,,,,,,,,153.8553945000167,153.8608349999995,153.8608349999995,153.8608349999995,0.0077745000016875565,153.8608349999995,154.26112609996926,154.26112609996926,154.58251679997193,0.72,0.38074130000313744,return,0.3050641999579966,None,154.58273540000664,154.5948923000251,155.1115146999946,155.08259160001762,,,,,,,,,,,,,,,,,,,,,939681,001,2024-09-13_11h13.05.442,gradcptpy,2024.2.1post4,59.92336998299895,2024-09-13 11h13.10.886159 -0400,
3,0,3,space,2.4208685000194237,None,0.42166666666666663,0.447092899994459,return,0.303955799958203,None,,,,1,0,1,0,0,0,0,0,3,0,3,0,155.1115146999946,,,,,,,,,,,,,,,,,,,,,,,,,,,,,155.09145130001707,155.1115146999946,155.1115146999946,155.1115146999946,0.008877899963408709,155.1115146999946,155.56258789997082,155.56258789997082,155.88422639999771,0.42166666666666663,0.447092899994459,return,0.303955799958203,None,155.88447669998277,155.89641879999544,156.4128989999881,156.38393399998313,,,,,,,,,,,,,,,,,,,,,939681,001,2024-09-13_11h13.05.442,gradcptpy,2024.2.1post4,59.92336998299895,2024-09-13 11h13.10.886159 -0400,
4,0,4,space,2.4208685000194237,None,0.49,0.6474065000074916,return,0.3219463999848813,None,,,,1,0,1,0,0,0,0,0,4,0,4,0,156.4128989999881,,,,,,,,,,,,,,,,,,,,,,,,,,,,,156.39311399997678,156.4128989999881,156.4128989999881,156.4128989999881,0.00920359999872744,156.4128989999881,157.06413010001415,157.06413010001415,157.4025355000049,0.49,0.6474065000074916,return,0.3219463999848813,None,157.40278160001617,157.4143608000013,157.93133699998725,157.90210479998495,,,,,,,,,,,,,,,,,,,,,939681,001,2024-09-13_11h13.05.442,gradcptpy,2024.2.1post4,59.92336998299895,2024-09-13 11h13.10.886159 -0400,
5,0,5,space,2.4208685000194237,None,0.24833333333333335,0.9477297000121325,return,0.28486750001320615,None,,,,1,0,1,0,0,0,0,0,5,0,5,0,157.93133699998725,,,,,,,,,,,,,,,,,,,,,,,,,,,,,157.91151010000613,157.93133699998725,157.93133699998725,157.93133699998725,0.009423899988178164,157.93133699998725,158.88272799999686,158.88272799999686,159.1708215000108,0.24833333333333335,0.9477297000121325,return,0.28486750001320615,None,159.17103640001733,159.18313810002292,159.69978929997887,159.67086969997035,,,,,,,,,,,,,,,,,,,,,939681,001,2024-09-13_11h13.05.442,gradcptpy,2024.2.1post4,59.92336998299895,2024-09-13 11h13.10.886159 -0400,
0,0,0,space,2.4208685000194237,None,,,,,,,,,1,0,1,0,0,0,0,0,,,,,,,,,,,,,,,,,,,,,,,,,,,,,,,,,,,,,,,,,,,,,,,,,,,,159.67777980002575,159.69978929997887,164.67537469998933,,,,,,,,,,,,,,,,,,939681,001,2024-09-13_11h13.05.442,gradcptpy,2024.2.1post4,59.92336998299895,2024-09-13 11h13.10.886159 -0400,
0,0,0,space,2.4208685000194237,None,0.6016666666666667,1.8230945000541396,return,0.28908190003130585,None,,,,1,0,1,0,1,0,1,0,0,0,0,0,193.30217209999682,,,,,,,,,,,,,,,,,,,,,,,,,,164.67554540000856,164.68921719997888,193.282164299977,193.2921958999941,193.30217209999682,193.30217209999682,193.30217209999682,0.01005119999172166,193.30217209999682,195.13797169999452,195.13797169999452,195.4433238999918,0.6016666666666667,1.8230945000541396,return,0.28908190003130585,None,195.44357920001494,195.45512100000633,195.97182189999148,195.94280919997254,,,,,,,,,,,,,,,,,,,,,939681,001,2024-09-13_11h13.05.442,gradcptpy,2024.2.1post4,59.92336998299895,2024-09-13 11h13.10.886159 -0400,
1,0,1,space,2.4208685000194237,None,0.51,0.4305201999959536,return,0.26087030000053346,None,,,,1,0,1,0,1,0,1,0,1,0,1,0,195.97182189999148,,,,,,,,,,,,,,,,,,,,,,,,,,,,,195.95157440000912,195.97182189999148,195.97182189999148,195.97182189999148,0.00878160004504025,195.97182189999148,196.406046100019,196.406046100019,196.67770030000247,0.51,0.4305201999959536,return,0.26087030000053346,None,196.67793140001595,196.68972780002514,197.20647919998737,197.1775239999988,,,,,,,,,,,,,,,,,,,,,939681,001,2024-09-13_11h13.05.442,gradcptpy,2024.2.1post4,59.92336998299895,2024-09-13 11h13.10.886159 -0400,
2,0,2,space,2.4208685000194237,None,0.36333333333333334,0.5139341999893077,return,0.2625473000225611,None,,,,1,0,1,0,1,0,1,0,2,0,2,0,197.20647919998737,,,,,,,,,,,,,,,,,,,,,,,,,,,,,197.18578070000513,197.20647919998737,197.20647919998737,197.20647919998737,0.008274999971035868,197.20647919998737,197.72431540000252,197.72431540000252,197.99570550001226,0.36333333333333334,0.5139341999893077,return,0.2625473000225611,None,197.99594789999537,198.00778520002495,198.5083571000141,198.4954169000266,,,,,,,,,,,,,,,,,,,,,939681,001,2024-09-13_11h13.05.442,gradcptpy,2024.2.1post4,59.92336998299895,2024-09-13 11h13.10.886159 -0400,
3,0,3,space,2.4208685000194237,None,0.7233333333333334,0.530779300024733,return,0.2676167999743484,None,,,,1,0,1,0,1,0,1,0,3,0,3,0,198.5083571000141,,,,,,,,,,,,,,,,,,,,,,,,,,,,,198.50336089998018,198.5083571000141,198.5083571000141,198.5083571000141,0.00796070002252236,198.5083571000141,199.05908360000467,199.05908360000467,199.33042389998445,0.7233333333333334,0.530779300024733,return,0.2676167999743484,None,199.33064170001308,199.3426379999728,199.85926950001158,199.83026120002614,,,,,,,,,,,,,,,,,,,,,939681,001,2024-09-13_11h13.05.442,gradcptpy,2024.2.1post4,59.92336998299895,2024-09-13 11h13.10.886159 -0400,
4,0,4,space,2.4208685000194237,None,0.3383333333333334,0.5139205999439582,return,0.29001830000197515,None,,,,1,0,1,0,1,0,1,0,4,0,4,0,199.85926950001158,,,,,,,,,,,,,,,,,,,,,,,,,,,,,199.83946749998722,199.85926950001158,199.85926950001158,199.85926950001158,0.009222800028510392,199.85926950001158,200.37702730001183,200.37702730001183,200.68235820002155,0.3383333333333334,0.5139205999439582,return,0.29001830000197515,None,200.68261020001955,200.69414259999758,201.2108272999758,201.18143230001442,,,,,,,,,,,,,,,,,,,,,939681,001,2024-09-13_11h13.05.442,gradcptpy,2024.2.1post4,59.92336998299895,2024-09-13 11h13.10.886159 -0400,
5,0,5,space,2.4208685000194237,None,0.565,0.64749760000268,return,0.2661115999799222,None,,,,1,0,1,0,1,0,1,0,5,0,5,0,201.2108272999758,,,,,,,,,,,,,,,,,,,,,,,,,,,,,201.19130000000587,201.2108272999758,201.2108272999758,201.2108272999758,0.009896399977151304,201.2108272999758,201.86182400002144,201.86182400002144,202.13344289996894,0.565,0.64749760000268,return,0.2661115999799222,None,202.13364549999824,202.14558489999035,202.64619529998163,202.63317709998228,,,,,,,,,,,,,,,,,,,,,939681,001,2024-09-13_11h13.05.442,gradcptpy,2024.2.1post4,59.92336998299895,2024-09-13 11h13.10.886159 -0400,
1,0,1,space,2.4208685000194237,None,,,,,,,,,1,0,1,0,1,0,1,0,,,,,,,,,,,,,,,,,,,,,,,,,,,,,,,,,,,,,,,,,,,,,,,,,,,,202.6400002000155,202.64619529998163,207.63813560002018,,,,,,,,,,,,,,,,,,939681,001,2024-09-13_11h13.05.442,gradcptpy,2024.2.1post4,59.92336998299895,2024-09-13 11h13.10.886159 -0400,
0,0,0,space,2.4208685000194237,None,0.56,1.0620059999637306,return,0.35526799998478964,None,,,,1,0,1,0,2,0,2,0,0,0,0,0,210.90439659997355,,,,,,,,,,,,,,,,,,,,,,,,,,207.6383230999927,207.65195349999703,210.87876689998666,210.88831850001588,210.90439659997355,210.90439659997355,210.90439659997355,0.009572900016792119,210.90439659997355,211.97290940000676,211.97290940000676,212.34451470000204,0.56,1.0620059999637306,return,0.35526799998478964,None,212.3447391000227,212.35660669999197,212.8731267999974,212.84405439998955,,,,,,,,,,,,,,,,,,,,,939681,001,2024-09-13_11h13.05.442,gradcptpy,2024.2.1post4,59.92336998299895,2024-09-13 11h13.10.886159 -0400,
1,0,1,space,2.4208685000194237,None,0.5333333333333333,0.41354219999630004,return,0.2774102999828756,None,,,,1,0,1,0,2,0,2,0,1,0,1,0,212.8731267999974,,,,,,,,,,,,,,,,,,,,,,,,,,,,,212.85401660000207,212.8731267999974,212.8731267999974,212.8731267999974,0.009989599988330156,212.8731267999974,213.29090199997881,213.29090199997881,213.57888569997158,0.5333333333333333,0.41354219999630004,return,0.2774102999828756,None,213.57908860000316,213.5911334999837,214.10776530002477,214.07884670002386,,,,,,,,,,,,,,,,,,,,,939681,001,2024-09-13_11h13.05.442,gradcptpy,2024.2.1post4,59.92336998299895,2024-09-13 11h13.10.886159 -0400,
2,0,2,space,2.4208685000194237,None,0.4533333333333333,0.49688910000259057,return,0.27879810001468286,None,,,,1,0,1,0,2,0,2,0,2,0,2,0,214.10776530002477,,,,,,,,,,,,,,,,,,,,,,,,,,,,,214.08779239997966,214.10776530002477,214.10776530002477,214.10776530002477,0.00896090001333505,214.10776530002477,214.6091953999712,214.6091953999712,214.8971943000215,0.4533333333333333,0.49688910000259057,return,0.27879810001468286,None,214.89742240001215,214.90924920001999,215.42601870000362,215.39704509999137,,,,,,,,,,,,,,,,,,,,,939681,001,2024-09-13_11h13.05.442,gradcptpy,2024.2.1post4,59.92336998299895,2024-09-13 11h13.10.886159 -0400,
3,0,3,space,2.4208685000194237,None,0.6233333333333333,0.4634352999855764,return,0.29476429999340326,None,,,,1,0,1,0,2,0,2,0,3,0,3,0,215.42601870000362,,,,,,,,,,,,,,,,,,,,,,,,,,,,,215.4073482999811,215.42601870000362,215.42601870000362,215.42601870000362,0.01033710001502186,215.42601870000362,215.8936914000078,215.8936914000078,216.19854509999277,0.6233333333333333,0.4634352999855764,return,0.29476429999340326,None,216.19879799999762,216.21063899999717,216.72746800002642,216.69868390000192,,,,,,,,,,,,,,,,,,,,,939681,001,2024-09-13_11h13.05.442,gradcptpy,2024.2.1post4,59.92336998299895,2024-09-13 11h13.10.886159 -0400,
4,0,4,space,2.4208685000194237,None,0.6766666666666666,0.4296532000298612,return,0.3061199000221677,None,,,,1,0,1,0,2,0,2,0,4,0,4,0,216.72746800002642,,,,,,,,,,,,,,,,,,,,,,,,,,,,,216.707040600013,216.72746800002642,216.72746800002642,216.72746800002642,0.00837979995412752,216.72746800002642,217.16163919999963,217.16163919999963,217.48323820001679,0.6766666666666666,0.4296532000298612,return,0.3061199000221677,None,217.4834538999712,217.49528350000037,218.01199650001945,217.98293009999907,,,,,,,,,,,,,,,,,,,,,939681,001,2024-09-13_11h13.05.442,gradcptpy,2024.2.1post4,59.92336998299895,2024-09-13 11h13.10.886159 -0400,
5,0,5,space,2.4208685000194237,None,0.7949999999999999,1.0643056000117213,return,0.30712599999969825,None,,,,1,0,1,0,2,0,2,0,5,0,5,0,218.01199650001945,,,,,,,,,,,,,,,,,,,,,,,,,,,,,217.99264040001435,218.01199650001945,218.01199650001945,218.01199650001945,0.00973109999904409,218.01199650001945,219.08037530002184,219.08037530002184,219.40185409999685,0.7949999999999999,1.0643056000117213,return,0.30712599999969825,None,219.40207660000306,219.41404730000068,219.91444419999607,219.90163470001426,,,,,,,,,,,,,,,,,,,,,939681,001,2024-09-13_11h13.05.442,gradcptpy,2024.2.1post4,59.92336998299895,2024-09-13 11h13.10.886159 -0400,
2,0,2,space,2.4208685000194237,None,,,,,,,,,1,0,1,0,2,0,2,0,,,,,,,,,,,,,,,,,,,,,,,,,,,,,,,,,,,,,,,,,,,,,,,,,,,,219.9042080999934,,219.9042405000073,,,,,,,,,,,,,,,,,,939681,001,2024-09-13_11h13.05.442,gradcptpy,2024.2.1post4,59.92336998299895,2024-09-13 11h13.10.886159 -0400,
1,0,1,space,2.4208685000194237,None,,,,,,space,1.2338295999797992,None,1,0,1,0,,,,,,,,,,,,,,,,,,,,,,,,,,,,,,,,,,,,,,,,,,,,,,,,,,,,,,,,,,,219.9110230000224,219.91444419999607,219.91444419999607,221.15342260000762,space,1.2338295999797992,None,,,,,,,,,,,939681,001,2024-09-13_11h13.05.442,gradcptpy,2024.2.1post4,59.92336998299895,2024-09-13 11h13.10.886159 -0400,
,,,,,,,,,,,,,,,,,,,,,,,,,,,,,,,,,,,,,,,,,,,,,,,,,,,,,,,,,,,,,,,,,,,,,,,,,,,,,,,,,,,221.15903420001268,221.16595890000463,221.16595890000463,222.2045573000214,space,1.0220214999862947,None,,,,939681,001,2024-09-13_11h13.05.442,gradcptpy,2024.2.1post4,59.92336998299895,2024-09-13 11h13.10.886159 -0400,
,,,,,,,,,,,,,,,,,,,,,,,,,,,,,,,,,,,,,,,,,,,,,,,,,,,,,,,,,,,,,,,,,,,,,,,,,,,,,,,,,,,,,,,,,,222.20460920000914,222.21706920000724,227.20996740000555,939681,001,2024-09-13_11h13.05.442,gradcptpy,2024.2.1post4,59.92336998299895,2024-09-13 11h13.10.886159 -0400,
