subject,session_code,lab_visit,total_runtime_mins,block_type,dom_key,nondom_key,gradcpt_trial,frame_count,transition_step,coherence,condition,resp_key,rt
05,2,2,6.244460433333333,gonogo,f,j,1,65,65,0.6770833333333334,dom,f,0.525814
05,2,2,6.255645066666667,gonogo,f,j,2,144,48,0.5,dom,f,0.404297
05,2,2,6.270394366666666,gonogo,f,j,3,250,58,0.6041666666666666,dom,f,0.479095
05,2,2,6.282844033333333,gonogo,f,j,4,340,52,0.5416666666666666,dom,f,0.429365
05,2,2,6.297461216666666,gonogo,f,j,5,445,61,0.6354166666666666,dom,f,0.502838
05,2,2,6.3096533,gonogo,f,j,6,533,53,0.5520833333333334,dom,f,0.438169
05,2,2,6.324661366666667,gonogo,f,j,7,641,65,0.6770833333333334,dom,f,0.538146
05,2,2,6.34033565,gonogo,f,j,8,754,82,0.8541666666666666,dom,f,0.671965
05,2,2,6.351663716666667,gonogo,f,j,9,836,68,0.7083333333333334,dom,f,0.558566
05,2,2,6.366032533333334,gonogo,f,j,10,939,75,0.78125,dom,f,0.615178
05,2,2,6.378127283333333,gonogo,f,j,11,1026,66,0.6875,dom,f,0.544443
05,2,2,6.391529816666666,gonogo,f,j,12,1123,67,0.6979166666666666,dom,f,0.546201
05,2,2,6.40551255,gonogo,f,j,13,1223,71,0.7395833333333334,dom,f,0.582419
05,2,2,6.4180926,gonogo,f,j,14,1314,66,0.6875,dom,f,0.544341
05,2,2,6.4343923,gonogo,f,j,15,1431,87,0.90625,dom,f,0.722679
05,2,2,6.446495016666666,gonogo,f,j,16,1518,78,0.8125,dom,f,0.644405
05,2,2,6.458976116666666,gonogo,f,j,17,1608,72,0.75,dom,f,0.594784
05,2,2,6.4708108,gonogo,f,j,18,1693,61,0.6354166666666666,dom,f,0.505257
05,2,2,6.484121683333333,gonogo,f,j,19,1789,61,0.6354166666666666,dom,f,0.502673
05,2,2,6.502351316666666,gonogo,f,j,20,1920,96,1.0,nondom,0,0.0
05,2,2,6.509950716666666,gonogo,f,j,21,1975,55,0.5729166666666666,dom,f,0.455934
05,2,2,6.524231283333333,gonogo,f,j,22,2078,62,0.6458333333333334,dom,f,0.510886
05,2,2,6.536997266666666,gonogo,f,j,23,2170,58,0.6041666666666666,dom,f,0.475067
05,2,2,6.5531819,gonogo,f,j,24,2286,78,0.8125,dom,f,0.645806
05,2,2,6.5647936,gonogo,f,j,25,2370,66,0.6875,dom,f,0.545662
05,2,2,6.578139966666667,gonogo,f,j,26,2466,66,0.6875,dom,f,0.543856
05,2,2,6.5934691333333335,gonogo,f,j,27,2577,81,0.84375,dom,f,0.66306
05,2,2,6.606173533333333,gonogo,f,j,28,2668,76,0.7916666666666666,dom,f,0.629128
05,2,2,6.619158783333333,gonogo,f,j,29,2762,74,0.7708333333333334,dom,f,0.604712
05,2,2,6.633194316666667,gonogo,f,j,30,2863,79,0.8229166666666666,dom,f,0.643428
05,2,2,6.649129883333333,gonogo,f,j,31,2976,96,1.0,dom,0,0.0
05,2,2,6.6502461,gonogo,f,j,32,2985,9,0.09375,dom,f,0.066937
05,2,2,6.658746383333334,gonogo,f,j,32,3047,71,0.7395833333333334,dom,f,0.576949
05,2,2,6.668967666666666,gonogo,f,j,33,3120,48,0.5,dom,f,0.392409
05,2,2,6.681463016666667,gonogo,f,j,34,3210,42,0.4375,dom,f,0.338776
05,2,2,6.696231166666666,gonogo,f,j,35,3316,52,0.5416666666666666,dom,f,0.432567
05,2,2,6.7156863499999995,gonogo,f,j,36,3456,96,1.0,nondom,0,0.0
05,2,2,6.723816433333334,gonogo,f,j,37,3515,59,0.6145833333333334,dom,f,0.487777
05,2,2,6.735951083333333,gonogo,f,j,38,3602,50,0.5208333333333334,dom,f,0.416038
05,2,2,6.750615466666667,gonogo,f,j,39,3708,60,0.625,dom,f,0.493579
05,2,2,6.763559616666667,gonogo,f,j,40,3801,57,0.59375,nondom,f,0.468438
05,2,2,6.7780586,gonogo,f,j,41,3906,66,0.6875,dom,f,0.541171
05,2,2,7.153965033333334,gonogo,f,j,42,3983,46,0.4791666666666667,dom,f,0.36608
05,2,2,7.167723183333334,gonogo,f,j,43,4082,49,0.5104166666666666,dom,f,0.398391
05,2,2,7.180000066666667,gonogo,f,j,44,4170,41,0.4270833333333333,dom,f,0.338649
05,2,2,7.192655566666667,gonogo,f,j,45,4262,37,0.3854166666666667,dom,f,0.301335
05,2,2,7.206945916666667,gonogo,f,j,46,4365,44,0.4583333333333333,nondom,f,0.359103
05,2,2,7.219838033333334,gonogo,f,j,47,4457,40,0.4166666666666667,dom,f,0.328875
05,2,2,7.232999483333333,gonogo,f,j,48,4552,39,0.40625,dom,f,0.315164
05,2,2,7.246171383333333,gonogo,f,j,49,4647,38,0.3958333333333333,dom,f,0.312315
05,2,2,7.259798983333334,gonogo,f,j,50,4745,40,0.4166666666666667,dom,f,0.329276
05,2,2,7.273433183333333,gonogo,f,j,51,4843,42,0.4375,dom,f,0.34708
05,2,2,7.2894513,gonogo,f,j,52,4958,61,0.6354166666666666,dom,f,0.504602
05,2,2,7.302361666666667,gonogo,f,j,53,5051,58,0.6041666666666666,dom,f,0.471821
05,2,2,7.315263383333333,gonogo,f,j,54,5143,54,0.5625,dom,f,0.449473
05,2,2,7.329448433333334,gonogo,f,j,55,5246,61,0.6354166666666666,dom,f,0.500527
05,2,2,7.347828783333333,gonogo,f,j,56,5377,96,1.0,nondom,0,0.0
05,2,2,7.354218166666667,gonogo,f,j,57,5424,47,0.4895833333333333,nondom,f,0.383315
05,2,2,7.3700885666666665,gonogo,f,j,58,5538,65,0.6770833333333334,dom,f,0.53731
05,2,2,7.3806023666666665,gonogo,f,j,59,5614,45,0.46875,dom,f,0.366669
05,2,2,7.397150516666667,gonogo,f,j,60,5733,68,0.7083333333333334,dom,f,0.555942
05,2,2,7.408469866666667,gonogo,f,j,61,5814,53,0.5520833333333334,dom,f,0.439958
05,2,2,7.4204482,gonogo,f,j,62,5901,44,0.4583333333333333,dom,f,0.353744
05,2,2,7.434578383333333,gonogo,f,j,63,6003,50,0.5208333333333334,dom,f,0.405565
05,2,2,7.447845816666667,gonogo,f,j,64,6098,49,0.5104166666666666,dom,f,0.401466
05,2,2,7.463379216666667,gonogo,f,j,65,6210,65,0.6770833333333334,dom,f,0.532534
05,2,2,7.478166,gonogo,f,j,66,6316,75,0.78125,dom,f,0.62205
05,2,2,7.490096733333333,gonogo,f,j,67,6402,65,0.6770833333333334,dom,f,0.539728
05,2,2,7.505221833333334,gonogo,f,j,68,6511,78,0.8125,dom,f,0.643259
05,2,2,7.52116635,gonogo,f,j,69,6625,96,1.0,nondom,0,0.0
05,2,2,7.530533916666667,gonogo,f,j,70,6693,68,0.7083333333333334,dom,f,0.562027
05,2,2,7.544501166666667,gonogo,f,j,71,6794,73,0.7604166666666666,dom,f,0.603728
05,2,2,7.554999183333334,gonogo,f,j,72,6870,53,0.5520833333333334,dom,f,0.427977
05,2,2,7.56941655,gonogo,f,j,73,6973,60,0.625,dom,f,0.493162
05,2,2,7.58487535,gonogo,f,j,74,7084,75,0.78125,dom,f,0.625754
05,2,2,7.596449516666667,gonogo,f,j,75,7168,63,0.65625,dom,f,0.514965
05,2,2,7.610391616666666,gonogo,f,j,76,7268,67,0.6979166666666666,dom,f,0.557349
05,2,2,7.622442666666667,gonogo,f,j,77,7355,58,0.6041666666666666,dom,f,0.472901
05,2,2,7.638129116666667,gonogo,f,j,78,7468,75,0.78125,dom,f,0.615926
05,2,2,7.650984766666666,gonogo,f,j,79,7561,72,0.75,dom,f,0.586939
05,2,2,7.6642771666666665,gonogo,f,j,80,7656,71,0.7395833333333334,dom,f,0.583405
05,2,2,8.142142483333334,gonogo,f,j,81,7746,64,0.6666666666666666,dom,f,0.514479
05,2,2,8.154622483333334,gonogo,f,j,82,7836,58,0.6041666666666666,dom,f,0.474013
05,2,2,8.166085733333334,gonogo,f,j,83,7918,44,0.4583333333333333,dom,f,0.362216
05,2,2,8.179943666666667,gonogo,f,j,84,8018,48,0.5,nondom,f,0.390623
05,2,2,8.191690016666666,gonogo,f,j,85,8103,37,0.3854166666666667,dom,f,0.2986
05,2,2,8.205808883333333,gonogo,f,j,86,8204,42,0.4375,dom,f,0.340656
05,2,2,8.219889916666666,gonogo,f,j,87,8306,48,0.5,dom,f,0.388926
05,2,2,8.233310233333333,gonogo,f,j,88,8402,48,0.5,dom,f,0.398215
05,2,2,8.248895433333333,gonogo,f,j,89,8515,65,0.6770833333333334,nondom,f,0.533712
05,2,2,8.262965466666666,gonogo,f,j,90,8616,70,0.7291666666666666,dom,f,0.570863
05,2,2,8.275265816666666,gonogo,f,j,91,8704,62,0.6458333333333334,dom,f,0.510733
05,2,2,8.289985916666668,gonogo,f,j,92,8811,73,0.7604166666666666,dom,f,0.596632
05,2,2,8.303747,gonogo,f,j,93,8909,75,0.78125,dom,f,0.621957
05,2,2,8.314355583333333,gonogo,f,j,94,8986,56,0.5833333333333334,dom,f,0.457242
05,2,2,8.327560316666666,gonogo,f,j,95,9081,55,0.5729166666666666,dom,f,0.448024
05,2,2,8.3409283,gonogo,f,j,96,9177,55,0.5729166666666666,dom,f,0.45098
05,2,2,8.35519095,gonogo,f,j,97,9280,62,0.6458333333333334,dom,f,0.511616
05,2,2,8.369123416666666,gonogo,f,j,98,9380,66,0.6875,dom,f,0.544122
05,2,2,8.386657016666666,gonogo,f,j,99,9506,96,1.0,nondom,0,0.0
05,2,2,8.394957183333334,gonogo,f,j,100,9566,60,0.625,dom,f,0.497982
05,2,2,8.409922983333333,gonogo,f,j,101,9674,72,0.75,dom,f,0.593433
05,2,2,8.426752916666667,gonogo,f,j,102,9794,96,1.0,nondom,0,0.0
05,2,2,8.43999145,gonogo,f,j,103,9890,96,1.0,nondom,0,0.0
05,2,2,8.447501716666666,gonogo,f,j,104,9945,55,0.5729166666666666,dom,f,0.450594
05,2,2,8.461091233333333,gonogo,f,j,105,10042,56,0.5833333333333334,dom,f,0.465214
05,2,2,8.474408316666667,gonogo,f,j,106,10138,56,0.5833333333333334,dom,f,0.459331
05,2,2,8.489302766666666,gonogo,f,j,107,10246,68,0.7083333333333334,dom,f,0.558632
05,2,2,8.503119233333333,gonogo,f,j,108,10345,71,0.7395833333333334,dom,f,0.586914
05,2,2,8.516160783333333,gonogo,f,j,109,10439,69,0.71875,dom,f,0.56277
05,2,2,8.52899585,gonogo,f,j,110,10531,65,0.6770833333333334,dom,f,0.539394
05,2,2,8.544530783333332,gonogo,f,j,111,10643,81,0.84375,dom,f,0.668353
05,2,2,8.559614233333333,gonogo,f,j,112,10752,94,0.9791666666666666,dom,f,0.77057
05,2,2,8.571821066666667,gonogo,f,j,113,10840,86,0.8958333333333334,dom,f,0.708269
05,2,2,8.586731483333333,gonogo,f,j,114,10946,96,1.0,dom,0,0.0
05,2,2,8.58684575,gonogo,f,j,115,10947,1,0.010416666666666666,dom,f,0.006821
05,2,2,8.597998683333334,gonogo,f,j,115,11028,82,0.8541666666666666,dom,f,0.676002
05,2,2,8.613327333333332,gonogo,f,j,116,11138,96,1.0,nondom,0,0.0
05,2,2,8.963848716666666,gonogo,f,j,117,11207,68,0.7083333333333334,dom,f,0.556746
05,2,2,8.981153916666667,gonogo,f,j,118,11331,96,1.0,nondom,0,0.0
05,2,2,8.991340266666667,gonogo,f,j,119,11405,74,0.7708333333333334,dom,f,0.611143
05,2,2,9.002723416666667,gonogo,f,j,120,11487,60,0.625,dom,f,0.493118
05,2,2,9.017378433333333,gonogo,f,j,121,11593,70,0.7291666666666666,dom,f,0.568324
05,2,2,9.0305195,gonogo,f,j,122,11687,68,0.7083333333333334,dom,f,0.559202
05,2,2,9.047219416666668,gonogo,f,j,123,11808,93,0.96875,dom,f,0.767185
05,2,2,9.056962083333334,gonogo,f,j,124,11878,67,0.6979166666666666,dom,f,0.549855
05,2,2,9.074440116666667,gonogo,f,j,125,12003,96,1.0,nondom,0,0.0
05,2,2,9.0820285,gonogo,f,j,126,12058,55,0.5729166666666666,dom,f,0.455274
05,2,2,9.097187499999999,gonogo,f,j,127,12167,68,0.7083333333333334,dom,f,0.561787
05,2,2,9.11277705,gonogo,f,j,128,12280,85,0.8854166666666666,dom,f,0.693013
05,2,2,9.124014283333334,gonogo,f,j,129,12360,69,0.71875,dom,f,0.574811
05,2,2,9.137145933333333,gonogo,f,j,130,12455,68,0.7083333333333334,dom,f,0.559528
05,2,2,9.150153333333332,gonogo,f,j,131,12549,66,0.6875,dom,f,0.538692
05,2,2,9.164566116666666,gonogo,f,j,132,12652,73,0.7604166666666666,dom,f,0.602718
05,2,2,9.181197983333334,gonogo,f,j,133,12771,96,1.0,nondom,0,0.0
05,2,2,9.190389333333334,gonogo,f,j,134,12838,67,0.6979166666666666,dom,f,0.55145
05,2,2,9.2042865,gonogo,f,j,135,12938,71,0.7395833333333334,dom,f,0.587014
05,2,2,9.2182517,gonogo,f,j,136,13039,76,0.7916666666666666,dom,f,0.625599
05,2,2,9.234507366666666,gonogo,f,j,137,13155,96,1.0,dom,0,0.0
05,2,2,9.234616266666666,gonogo,f,j,138,13156,1,0.010416666666666666,dom,f,0.006498
05,2,2,9.244722266666667,gonogo,f,j,138,13230,75,0.78125,dom,f,0.612868
05,2,2,9.261176,gonogo,f,j,139,13347,96,1.0,dom,0,0.0
05,2,2,9.261449133333334,gonogo,f,j,140,13350,3,0.03125,dom,f,0.01636
05,2,2,9.271603566666666,gonogo,f,j,140,13423,76,0.7916666666666666,dom,f,0.625621
05,2,2,9.285200316666668,gonogo,f,j,141,13519,76,0.7916666666666666,dom,f,0.643666
05,2,2,9.297868383333334,gonogo,f,j,142,13611,72,0.75,dom,f,0.596795
05,2,2,9.31073845,gonogo,f,j,143,13704,69,0.71875,dom,f,0.56498
05,2,2,9.323883866666668,gonogo,f,j,144,13799,68,0.7083333333333334,dom,f,0.551482
05,2,2,9.3372961,gonogo,f,j,145,13895,68,0.7083333333333334,dom,f,0.562128
05,2,2,9.351089833333333,gonogo,f,j,146,13994,71,0.7395833333333334,dom,f,0.583452
05,2,2,9.365495483333332,gonogo,f,j,147,14098,79,0.8229166666666666,dom,f,0.650298
05,2,2,9.378252516666667,gonogo,f,j,148,14190,75,0.78125,dom,f,0.614503
05,2,2,9.392448383333335,gonogo,f,j,149,14292,81,0.84375,dom,f,0.665901
05,2,2,9.841874066666666,gonogo,f,j,150,14374,66,0.6875,dom,f,0.53193
05,2,2,9.859436283333334,gonogo,f,j,151,14500,96,1.0,nondom,0,0.0
05,2,2,9.8682643,gonogo,f,j,152,14564,64,0.6666666666666666,dom,f,0.529655
05,2,2,9.881337033333333,gonogo,f,j,153,14658,62,0.6458333333333334,dom,f,0.509392
05,2,2,9.895972116666666,gonogo,f,j,154,14764,72,0.75,dom,f,0.591936
05,2,2,9.9083978,gonogo,f,j,155,14853,65,0.6770833333333334,dom,f,0.537358
05,2,2,9.923616216666666,gonogo,f,j,156,14963,79,0.8229166666666666,dom,f,0.647009
05,2,2,9.9357737,gonogo,f,j,157,15050,70,0.7291666666666666,dom,f,0.578504
05,2,2,9.949250866666667,gonogo,f,j,158,15147,71,0.7395833333333334,dom,f,0.584451
05,2,2,9.963570866666666,gonogo,f,j,159,15250,78,0.8125,dom,f,0.646836
05,2,2,9.9777869,gonogo,f,j,160,15353,85,0.8854166666666666,dom,f,0.692979
05,2,2,9.989950733333334,gonogo,f,j,161,15440,76,0.7916666666666666,dom,f,0.627789
05,2,2,10.002891983333335,gonogo,f,j,162,15533,73,0.7604166666666666,dom,f,0.60715
05,2,2,10.01950645,gonogo,f,j,163,15652,96,1.0,nondom,0,0.0
05,2,2,10.032852466666666,gonogo,f,j,164,15748,96,1.0,nondom,0,0.0
05,2,2,10.041296866666666,gonogo,f,j,165,15810,62,0.6458333333333334,dom,f,0.506642
05,2,2,10.05514315,gonogo,f,j,166,15909,65,0.6770833333333334,dom,f,0.54244
05,2,2,10.072846633333334,gonogo,f,j,167,16036,96,1.0,nondom,0,0.0
05,2,2,10.083195083333333,gonogo,f,j,168,16112,76,0.7916666666666666,dom,f,0.620871
05,2,2,10.097068266666668,gonogo,f,j,169,16211,79,0.8229166666666666,dom,f,0.653738
05,2,2,10.112136366666666,gonogo,f,j,170,16319,91,0.9479166666666666,dom,f,0.760274
05,2,2,10.126108033333333,gonogo,f,j,171,16420,96,1.0,dom,0,0.0
05,2,2,10.1262091,gonogo,f,j,172,16421,1,0.010416666666666666,nondom,f,0.006032
05,2,2,10.14928385,gonogo,f,j,173,16587,71,0.7395833333333334,dom,f,0.590846
05,2,2,10.162987483333334,gonogo,f,j,174,16686,74,0.7708333333333334,dom,f,0.610568
05,2,2,10.174976233333332,gonogo,f,j,175,16772,64,0.6666666666666666,dom,f,0.526954
05,2,2,10.192537816666666,gonogo,f,j,176,16899,95,0.9895833333333334,dom,f,0.786235
05,2,2,10.206189033333334,gonogo,f,j,177,16996,96,1.0,nondom,0,0.0
05,2,2,10.216323533333334,gonogo,f,j,178,17070,74,0.7708333333333334,dom,f,0.608041
05,2,2,10.232209183333334,gonogo,f,j,179,17184,92,0.9583333333333334,dom,f,0.766719
05,2,2,10.246128166666667,gonogo,f,j,180,17284,96,1.0,dom,0,0.0
05,2,2,10.2474282,gonogo,f,j,181,17294,10,0.10416666666666667,dom,f,0.077981
05,2,2,10.259615016666666,gonogo,f,j,182,17381,1,0.010416666666666666,dom,f,0.006704
05,2,2,10.760501216666666,gonogo,f,j,183,17535,58,0.6041666666666666,dom,f,0.467201
05,2,2,10.776526966666667,gonogo,f,j,184,17651,78,0.8125,dom,f,0.638935
05,2,2,10.78830015,gonogo,f,j,185,17735,66,0.6875,dom,f,0.542137
05,2,2,10.805845566666667,gonogo,f,j,186,17861,96,1.0,nondom,0,0.0
05,2,2,10.812818616666668,gonogo,f,j,187,17912,51,0.53125,dom,f,0.418356
05,2,2,10.826594016666666,gonogo,f,j,188,18011,54,0.5625,dom,f,0.441814
05,2,2,10.84202155,gonogo,f,j,189,18122,69,0.71875,dom,f,0.564688
05,2,2,10.8553162,gonogo,f,j,190,18218,69,0.71875,dom,f,0.563802
05,2,2,10.87076005,gonogo,f,j,191,18329,84,0.875,dom,f,0.696002
05,2,2,10.881668416666667,gonogo,f,j,192,18408,67,0.6979166666666666,dom,f,0.548574
05,2,2,10.897298900000001,gonogo,f,j,193,18520,83,0.8645833333333334,dom,f,0.683431
05,2,2,10.910753583333333,gonogo,f,j,194,18617,84,0.875,dom,f,0.689266
05,2,2,10.925928,gonogo,f,j,195,18725,96,1.0,dom,0,0.0
05,2,2,10.926760983333333,gonogo,f,j,196,18732,7,0.07291666666666667,dom,f,0.049952
05,2,2,10.937058,gonogo,f,j,196,18806,81,0.84375,dom,f,0.667772
05,2,2,10.951953133333335,gonogo,f,j,197,18913,92,0.9583333333333334,dom,f,0.767444
05,2,2,10.962758933333333,gonogo,f,j,198,18991,74,0.7708333333333334,dom,f,0.61015
05,2,2,10.978162900000001,gonogo,f,j,199,19102,89,0.9270833333333334,dom,f,0.739866
05,2,2,10.992509916666668,gonogo,f,j,200,19205,96,1.0,dom,0,0.0
05,2,2,10.993608066666667,gonogo,f,j,201,19214,9,0.09375,nondom,f,0.065855
05,2,2,11.014432216666668,gonogo,f,j,202,19363,62,0.6458333333333334,dom,f,0.51619
05,2,2,11.031596216666665,gonogo,f,j,203,19487,90,0.9375,dom,f,0.746366
05,2,2,11.04591345,gonogo,f,j,204,19589,96,1.0,dom,0,0.0
05,2,2,11.048393916666667,gonogo,f,j,205,19608,19,0.19791666666666666,dom,f,0.148803
05,2,2,11.057581449999999,gonogo,f,j,205,19674,85,0.8854166666666666,dom,f,0.700055
05,2,2,11.070965916666667,gonogo,f,j,206,19770,85,0.8854166666666666,dom,f,0.701074
05,2,2,11.085899516666666,gonogo,f,j,207,19877,96,1.0,dom,0,0.0
05,2,2,11.087304833333333,gonogo,f,j,208,19888,11,0.11458333333333333,dom,f,0.084293
05,2,2,11.10105245,gonogo,f,j,209,19987,14,0.14583333333333334,dom,f,0.113674
05,2,2,11.111112983333333,gonogo,f,j,209,20060,87,0.90625,dom,f,0.717311
05,2,2,11.11260435,gonogo,f,j,210,20070,1,0.010416666666666666,dom,f,0.006485
05,2,2,11.126245933333333,gonogo,f,j,211,20169,4,0.041666666666666664,dom,f,0.020573
05,2,2,11.1348417,gonogo,f,j,211,20230,65,0.6770833333333334,dom,f,0.536317
05,2,2,11.151893583333333,gonogo,f,j,212,20353,92,0.9583333333333334,dom,f,0.759339
05,2,2,11.163563083333335,gonogo,f,j,213,20437,80,0.8333333333333334,dom,f,0.664078
05,2,2,11.177360266666666,gonogo,f,j,214,20536,83,0.8645833333333334,dom,f,0.687647
05,2,2,11.190977933333333,gonogo,f,j,215,20635,86,0.8958333333333334,dom,f,0.707112
05,2,2,11.2041715,gonogo,f,j,216,20730,85,0.8854166666666666,dom,f,0.700723
05,2,2,11.219216600000001,gonogo,f,j,217,20837,96,1.0,nondom,0,0.0
05,2,2,11.232606299999999,gonogo,f,j,218,20933,96,1.0,nondom,0,0.0
05,2,2,11.591400966666667,gonogo,f,j,219,20994,60,0.625,dom,f,0.484835
05,2,2,11.605510833333334,gonogo,f,j,220,21095,65,0.6770833333333334,dom,f,0.534463
05,2,2,11.618808516666666,gonogo,f,j,221,21191,65,0.6770833333333334,dom,f,0.532709
05,2,2,11.631033933333333,gonogo,f,j,222,21279,57,0.59375,dom,f,0.466179
05,2,2,11.644396616666667,gonogo,f,j,223,21375,57,0.59375,dom,f,0.468991
05,2,2,11.658681066666666,gonogo,f,j,224,21478,64,0.6666666666666666,dom,f,0.523828
05,2,2,11.676545016666667,gonogo,f,j,225,21606,96,1.0,nondom,0,0.0
05,2,2,11.687197033333332,gonogo,f,j,226,21683,77,0.8020833333333334,dom,f,0.639096
05,2,2,11.703210916666666,gonogo,f,j,227,21798,96,1.0,nondom,0,0.0
05,2,2,11.713403099999999,gonogo,f,j,228,21871,73,0.7604166666666666,dom,f,0.611505
05,2,2,11.724812983333333,gonogo,f,j,229,21954,60,0.625,dom,f,0.492122
05,2,2,11.739168833333334,gonogo,f,j,230,22058,68,0.7083333333333334,dom,f,0.555681
05,2,2,11.752872516666667,gonogo,f,j,231,22156,70,0.7291666666666666,dom,f,0.579141
05,2,2,11.766696466666668,gonogo,f,j,232,22256,74,0.7708333333333334,dom,f,0.603465
05,2,2,11.780002083333333,gonogo,f,j,233,22352,74,0.7708333333333334,dom,f,0.607264
05,2,2,11.796587066666666,gonogo,f,j,234,22470,96,1.0,nondom,0,0.0
05,2,2,11.807142833333334,gonogo,f,j,235,22547,77,0.8020833333333334,dom,f,0.633314
05,2,2,11.819566983333335,gonogo,f,j,236,22636,70,0.7291666666666666,dom,f,0.575394
05,2,2,11.834445333333333,gonogo,f,j,237,22744,82,0.8541666666666666,dom,f,0.671166
05,2,2,11.849726,gonogo,f,j,238,22854,96,1.0,dom,f,0.789034
05,2,2,11.862159316666666,gonogo,f,j,239,22943,89,0.9270833333333334,dom,f,0.733439
05,2,2,11.87463585,gonogo,f,j,240,23033,83,0.8645833333333334,dom,f,0.680705
05,2,2,11.888992683333333,gonogo,f,j,241,23136,90,0.9375,dom,f,0.748224
05,2,2,11.903291916666666,gonogo,f,j,242,23238,96,1.0,dom,0,0.0
05,2,2,11.906559333333332,gonogo,f,j,243,23263,25,0.2604166666666667,dom,f,0.196015
05,2,2,11.9158107,gonogo,f,j,243,23329,91,0.9479166666666666,dom,f,0.751098
05,2,2,11.928956216666668,gonogo,f,j,244,23424,90,0.9375,dom,f,0.746164
05,2,2,11.943182383333333,gonogo,f,j,245,23526,96,1.0,dom,0,0.0
05,2,2,11.945618933333332,gonogo,f,j,246,23544,18,0.1875,dom,f,0.146164
05,2,2,11.958978266666666,gonogo,f,j,247,23640,18,0.1875,dom,f,0.139796
05,2,2,11.968420433333334,gonogo,f,j,247,23708,86,0.8958333333333334,dom,f,0.706323
05,2,2,11.980780566666665,gonogo,f,j,248,23797,79,0.8229166666666666,dom,f,0.65338
05,2,2,11.996604216666666,gonogo,f,j,249,23910,96,1.0,dom,0,0.0
05,2,2,12.000077966666668,gonogo,f,j,250,23936,26,0.2708333333333333,dom,f,0.208399
05,2,2,12.008455333333334,gonogo,f,j,250,23996,86,0.8958333333333334,dom,f,0.711041
05,2,2,12.023280316666668,gonogo,f,j,251,24102,96,1.0,dom,f,0.80025
05,2,2,12.036518083333334,gonogo,f,j,252,24198,96,1.0,dom,0,0.0
05,2,2,12.036620733333333,gonogo,f,j,253,24199,1,0.010416666666666666,dom,f,0.006125
05,2,2,12.441451266666666,gonogo,f,j,253,24265,66,0.6875,dom,f,0.539267
05,2,2,12.453968433333333,gonogo,f,j,254,24355,60,0.625,dom,f,0.490964
05,2,2,12.4674688,gonogo,f,j,255,24452,61,0.6354166666666666,dom,f,0.505374
05,2,2,12.485686266666667,gonogo,f,j,256,24583,96,1.0,nondom,0,0.0
05,2,2,12.495421833333333,gonogo,f,j,257,24654,71,0.7395833333333334,dom,f,0.584107
05,2,2,12.512476,gonogo,f,j,258,24775,96,1.0,nondom,0,0.0
05,2,2,12.521590366666667,gonogo,f,j,259,24842,67,0.6979166666666666,dom,f,0.546831
05,2,2,12.53902155,gonogo,f,j,260,24967,96,1.0,nondom,0,0.0
05,2,2,12.5488941,gonogo,f,j,261,25039,72,0.75,dom,f,0.592326
05,2,2,12.562185566666667,gonogo,f,j,262,25134,71,0.7395833333333334,dom,f,0.582111
05,2,2,12.574569266666666,gonogo,f,j,263,25223,64,0.6666666666666666,dom,f,0.528795
05,2,2,12.592455666666666,gonogo,f,j,264,25351,96,1.0,nondom,0,0.0
05,2,2,12.602839566666667,gonogo,f,j,265,25427,76,0.7916666666666666,dom,f,0.623006
05,2,2,12.619019316666668,gonogo,f,j,266,25543,96,1.0,dom,0,0.0
05,2,2,12.62006225,gonogo,f,j,267,25551,8,0.08333333333333333,dom,f,0.062549
05,2,2,12.628354066666667,gonogo,f,j,267,25611,68,0.7083333333333334,dom,f,0.560061
05,2,2,12.6424343,gonogo,f,j,268,25712,73,0.7604166666666666,dom,f,0.60119
05,2,2,12.659110883333334,gonogo,f,j,269,25831,96,1.0,nondom,0,0.0
05,2,2,12.671041383333334,gonogo,f,j,270,25917,86,0.8958333333333334,dom,f,0.715805
05,2,2,12.68388045,gonogo,f,j,271,26010,83,0.8645833333333334,dom,f,0.68913
05,2,2,12.697163183333334,gonogo,f,j,272,26106,83,0.8645833333333334,dom,f,0.685238
05,2,2,12.712426783333333,gonogo,f,j,273,26215,96,1.0,dom,0,0.0
05,2,2,12.715384866666666,gonogo,f,j,274,26237,22,0.22916666666666666,dom,f,0.177457
05,2,2,12.723530983333335,gonogo,f,j,274,26296,81,0.84375,dom,f,0.666226
05,2,2,12.739104816666666,gonogo,f,j,275,26407,96,1.0,dom,0,0.0
05,2,2,12.7442823,gonogo,f,j,276,26445,38,0.3958333333333333,nondom,f,0.310622
05,2,2,12.761634433333334,gonogo,f,j,277,26570,67,0.6979166666666666,dom,f,0.552838
05,2,2,12.777783300000001,gonogo,f,j,278,26687,88,0.9166666666666666,dom,f,0.7215
05,2,2,12.791955633333334,gonogo,f,j,279,26789,94,0.9791666666666666,dom,f,0.769093
05,2,2,12.805815516666666,gonogo,f,j,280,26887,96,1.0,dom,0,0.0
05,2,2,12.80735815,gonogo,f,j,281,26900,13,0.13541666666666666,dom,f,0.092534
05,2,2,12.817396516666667,gonogo,f,j,281,26972,85,0.8854166666666666,dom,f,0.694835
05,2,2,12.830763433333335,gonogo,f,j,282,27068,85,0.8854166666666666,dom,f,0.699439
05,2,2,12.845744766666666,gonogo,f,j,283,27175,96,1.0,dom,0,0.0
05,2,2,12.846595216666666,gonogo,f,j,284,27182,7,0.07291666666666667,dom,f,0.050992
05,2,2,12.857225699999999,gonogo,f,j,284,27259,84,0.875,dom,f,0.688823
05,2,2,12.87239495,gonogo,f,j,285,27367,96,1.0,nondom,0,0.0
05,2,2,12.880622216666666,gonogo,f,j,286,27427,60,0.625,dom,f,0.493605
05,2,2,12.895282216666667,gonogo,f,j,287,27533,70,0.7291666666666666,dom,f,0.575381
05,2,2,12.910773316666667,gonogo,f,j,288,27644,85,0.8854166666666666,dom,f,0.70217
05,2,2,12.921216500000002,gonogo,f,j,289,27719,64,0.6666666666666666,dom,f,0.524489
05,2,2,12.937776033333334,gonogo,f,j,290,27839,88,0.9166666666666666,dom,f,0.721347
05,2,2,12.948568633333334,gonogo,f,j,291,27916,69,0.71875,dom,f,0.566727
05,2,2,12.963750000000001,gonogo,f,j,292,28026,83,0.8645833333333334,dom,f,0.680107
05,2,2,12.976514983333335,gonogo,f,j,293,28117,78,0.8125,dom,f,0.645609
05,2,2,12.991880266666668,gonogo,f,j,294,28228,93,0.96875,dom,f,0.771365
05,2,2,13.005762716666668,gonogo,f,j,295,28327,96,1.0,nondom,0,0.0
05,2,2,13.016387033333332,gonogo,f,j,296,28405,78,0.8125,dom,f,0.637436
05,2,2,13.030084733333332,gonogo,f,j,297,28503,80,0.8333333333333334,dom,f,0.661685
05,2,2,13.463062833333334,gonogo,f,j,298,28580,60,0.625,dom,f,0.477815
05,2,2,13.477626299999999,gonogo,f,j,299,28684,68,0.7083333333333334,dom,f,0.560896
05,2,2,13.492035216666666,gonogo,f,j,300,28788,76,0.7916666666666666,dom,f,0.62697
05,2,2,13.506187466666667,gonogo,f,j,301,28890,82,0.8541666666666666,dom,f,0.679942
05,2,2,13.519370133333332,gonogo,f,j,302,28985,81,0.84375,dom,f,0.666056
05,2,2,13.530990133333335,gonogo,f,j,303,29069,69,0.71875,dom,f,0.564949
05,2,2,13.545776666666665,gonogo,f,j,304,29175,79,0.8229166666666666,dom,f,0.651802
05,2,2,13.559252733333333,gonogo,f,j,305,29272,80,0.8333333333333334,dom,f,0.663554
05,2,2,13.572394533333332,gonogo,f,j,306,29366,78,0.8125,dom,f,0.652349
05,2,2,13.586398599999999,gonogo,f,j,307,29468,84,0.875,nondom,f,0.690804
05,2,2,13.598643299999999,gonogo,f,j,308,29556,76,0.7916666666666666,dom,f,0.626832
05,2,2,13.611579583333334,gonogo,f,j,309,29649,73,0.7604166666666666,dom,f,0.599818
05,2,2,13.626529616666666,gonogo,f,j,310,29757,85,0.8854166666666666,dom,f,0.699001
05,2,2,13.63986685,gonogo,f,j,311,29853,85,0.8854166666666666,dom,f,0.697332
05,2,2,13.65497105,gonogo,f,j,312,29960,96,1.0,dom,0,0.0
05,2,2,13.6550788,gonogo,f,j,313,29961,1,0.010416666666666666,nondom,f,0.006426
05,2,2,13.678388416666667,gonogo,f,j,314,30130,74,0.7708333333333334,dom,f,0.604958
05,2,2,13.693468583333333,gonogo,f,j,315,30239,87,0.90625,dom,f,0.710675
05,2,2,13.70820215,gonogo,f,j,316,30344,96,1.0,dom,0,0.0
05,2,2,13.71159555,gonogo,f,j,317,30369,25,0.2604166666666667,dom,f,0.203575
05,2,2,13.724519483333333,gonogo,f,j,318,30462,22,0.22916666666666666,nondom,f,0.173063
05,2,2,13.745779133333334,gonogo,f,j,319,30615,79,0.8229166666666666,dom,f,0.649911
05,2,2,13.7577785,gonogo,f,j,320,30702,70,0.7291666666666666,dom,f,0.574646
05,2,2,13.7748597,gonogo,f,j,321,30824,96,1.0,dom,0,0.0
05,2,2,13.778621750000001,gonogo,f,j,322,30852,28,0.2916666666666667,dom,f,0.225696
05,2,2,13.79140465,gonogo,f,j,323,30943,23,0.23958333333333334,dom,f,0.189015
05,2,2,13.8034107,gonogo,f,j,324,31030,14,0.14583333333333334,dom,f,0.105946
05,2,2,13.819727366666665,gonogo,f,j,325,31148,36,0.375,dom,f,0.287693
05,2,2,13.83597995,gonogo,f,j,326,31265,57,0.59375,dom,f,0.464159
05,2,2,13.851222733333334,gonogo,f,j,327,31374,70,0.7291666666666666,dom,f,0.578411
05,2,2,13.865369066666666,gonogo,f,j,328,31476,76,0.7916666666666666,dom,f,0.626387
05,2,2,13.879668416666668,gonogo,f,j,329,31579,83,0.8645833333333334,dom,f,0.682925
05,2,2,13.89495335,gonogo,f,j,330,31688,96,1.0,dom,0,0.0
05,2,2,13.908210283333334,gonogo,f,j,331,31784,96,1.0,dom,0,0.0
05,2,2,13.909005366666666,gonogo,f,j,332,31790,6,0.0625,dom,f,0.047682
05,2,2,13.927466016666667,gonogo,f,j,333,31923,43,0.4479166666666667,dom,f,0.352462
05,2,2,13.940835033333334,gonogo,f,j,334,32020,44,0.4583333333333333,nondom,f,0.355706
05,2,2,13.961644433333333,gonogo,f,j,335,32168,96,1.0,dom,0,0.0
05,2,2,13.96219915,gonogo,f,j,336,32173,5,0.052083333333333336,dom,f,0.033256
05,2,2,13.97135475,gonogo,f,j,336,32239,71,0.7395833333333334,dom,f,0.582587
05,2,2,13.986038883333332,gonogo,f,j,337,32345,81,0.84375,dom,f,0.665117
05,2,2,14.001608483333333,gonogo,f,j,338,32456,96,1.0,dom,0,0.0
05,2,2,14.002489200000001,gonogo,f,j,339,32463,7,0.07291666666666667,dom,f,0.052814
05,2,2,14.016087800000001,gonogo,f,j,340,32561,9,0.09375,nondom,f,0.067551
05,2,2,14.038858183333334,gonogo,f,j,341,32725,77,0.8020833333333334,dom,f,0.63691
05,2,2,14.389852383333334,gonogo,f,j,342,32812,67,0.6979166666666666,dom,f,0.543023
05,2,2,14.40222515,gonogo,f,j,343,32902,61,0.6354166666666666,dom,f,0.500538
05,2,2,14.415914249999998,gonogo,f,j,344,33000,63,0.65625,dom,f,0.519765
05,2,2,14.426898433333333,gonogo,f,j,345,33079,46,0.4791666666666667,dom,f,0.373484
05,2,2,14.439839616666665,gonogo,f,j,346,33172,43,0.4479166666666667,dom,f,0.357435
05,2,2,14.454574483333333,gonogo,f,j,347,33278,53,0.5520833333333334,dom,f,0.437435
05,2,2,14.468623283333333,gonogo,f,j,348,33380,59,0.6145833333333334,dom,f,0.482645
05,2,2,14.481040483333334,gonogo,f,j,349,33469,52,0.5416666666666666,dom,f,0.424743
05,2,2,14.496109666666666,gonogo,f,j,350,33578,65,0.6770833333333334,dom,f,0.530278
05,2,2,14.511050333333333,gonogo,f,j,351,33685,76,0.7916666666666666,dom,f,0.626131
05,2,2,14.5264992,gonogo,f,j,352,33796,91,0.9479166666666666,dom,f,0.751316
05,2,2,14.536187666666667,gonogo,f,j,353,33866,65,0.6770833333333334,dom,f,0.536513
05,2,2,14.550546133333334,gonogo,f,j,354,33969,72,0.75,dom,f,0.596029
05,2,2,14.567334116666666,gonogo,f,j,355,34089,96,1.0,dom,0,0.0
05,2,2,14.568207833333334,gonogo,f,j,356,34096,7,0.07291666666666667,dom,f,0.052397
05,2,2,14.577043716666667,gonogo,f,j,356,34160,71,0.7395833333333334,dom,f,0.582546
05,2,2,14.590584283333333,gonogo,f,j,357,34257,72,0.75,dom,f,0.59576
05,2,2,14.607215966666667,gonogo,f,j,358,34377,96,1.0,dom,0,0.0
05,2,2,14.60882855,gonogo,f,j,359,34389,12,0.125,dom,f,0.09673
05,2,2,14.625917600000001,gonogo,f,j,360,34512,39,0.40625,dom,f,0.316678
05,2,2,14.63430505,gonogo,f,j,361,34573,4,0.041666666666666664,dom,f,0.020741
05,2,2,14.650541483333335,gonogo,f,j,362,34689,24,0.25,dom,f,0.199208
05,2,2,14.665080833333333,gonogo,f,j,363,34794,33,0.34375,dom,f,0.264481
05,2,2,14.677498183333334,gonogo,f,j,364,34883,26,0.2708333333333333,dom,f,0.209394
05,2,2,14.689661633333333,gonogo,f,j,365,34971,18,0.1875,nondom,f,0.141326
05,2,2,14.714022216666667,gonogo,f,j,366,35145,96,1.0,dom,0,0.0
05,2,2,14.714135233333334,gonogo,f,j,367,35146,1,0.010416666666666666,nondom,f,0.006747
05,2,2,14.736831633333333,gonogo,f,j,368,35310,69,0.71875,dom,f,0.567067
05,2,2,14.750836349999998,gonogo,f,j,369,35411,74,0.7708333333333334,dom,f,0.60804
05,2,2,14.766650583333334,gonogo,f,j,370,35524,91,0.9479166666666666,dom,f,0.755053
05,2,2,14.780777766666667,gonogo,f,j,371,35625,96,1.0,nondom,0,0.0
05,2,2,14.791453916666667,gonogo,f,j,372,35703,78,0.8125,dom,f,0.640541
05,2,2,14.807385366666667,gonogo,f,j,373,35817,96,1.0,dom,0,0.0
05,2,2,14.80748905,gonogo,f,j,374,35818,1,0.010416666666666666,dom,f,0.006199
05,2,2,14.820349233333333,gonogo,f,j,374,35911,94,0.9791666666666666,dom,f,0.777804
05,2,2,14.834134583333334,gonogo,f,j,375,36009,96,1.0,dom,0,0.0
05,2,2,14.834231583333333,gonogo,f,j,376,36010,1,0.010416666666666666,dom,f,0.005794
05,2,2,14.855371866666667,gonogo,f,j,377,36163,58,0.6041666666666666,nondom,f,0.475424
05,2,2,14.87290485,gonogo,f,j,378,36289,88,0.9166666666666666,dom,f,0.727727
05,2,2,14.887468166666668,gonogo,f,j,379,36393,96,1.0,dom,0,0.0
05,2,2,14.89690265,gonogo,f,j,380,36462,69,0.71875,dom,f,0.566042
05,2,2,14.9061232,gonogo,f,j,381,36529,40,0.4166666666666667,dom,f,0.319478
05,2,2,15.326090749999999,gonogo,f,j,382,36634,48,0.5,dom,f,0.380729
05,2,2,15.340993,gonogo,f,j,383,36741,59,0.6145833333333334,dom,f,0.483185
05,2,2,15.353643283333334,gonogo,f,j,384,36832,54,0.5625,dom,f,0.443494
05,2,2,15.369155733333335,gonogo,f,j,385,36944,70,0.7291666666666666,dom,f,0.573376
05,2,2,15.386291433333334,gonogo,f,j,386,37066,96,1.0,nondom,0,0.0
05,2,2,15.396914883333332,gonogo,f,j,387,37143,77,0.8020833333333334,dom,f,0.637379
05,2,2,15.4129016,gonogo,f,j,388,37258,96,1.0,dom,0,0.0
05,2,2,15.415439516666668,gonogo,f,j,389,37277,19,0.19791666666666666,dom,f,0.152231
05,2,2,15.43337255,gonogo,f,j,390,37406,52,0.5416666666666666,dom,f,0.431656
05,2,2,15.440979033333333,gonogo,f,j,391,37461,11,0.11458333333333333,dom,f,0.087601
05,2,2,15.449843216666666,gonogo,f,j,391,37525,75,0.78125,dom,f,0.619454
05,2,2,15.466191966666665,gonogo,f,j,392,37642,96,1.0,dom,0,0.0
05,2,2,15.46666125,gonogo,f,j,393,37646,4,0.041666666666666664,dom,f,0.028128
05,2,2,15.485689333333333,gonogo,f,j,394,37783,45,0.46875,dom,f,0.370171
05,2,2,15.49780395,gonogo,f,j,395,37870,36,0.375,dom,f,0.293792
05,2,2,15.511185533333332,gonogo,f,j,396,37967,37,0.3854166666666667,dom,f,0.298523
05,2,2,15.52622995,gonogo,f,j,397,38074,48,0.5,nondom,f,0.398802
05,2,2,15.541598583333332,gonogo,f,j,398,38185,63,0.65625,dom,f,0.524912
05,2,2,15.554875983333334,gonogo,f,j,399,38281,63,0.65625,dom,f,0.519733
05,2,2,15.571829916666667,gonogo,f,j,400,38403,89,0.9270833333333334,dom,f,0.734017
05,2,2,15.58547085,gonogo,f,j,401,38501,91,0.9479166666666666,dom,f,0.757667
05,2,2,15.599547583333333,gonogo,f,j,402,38602,96,1.0,dom,0,0.0
05,2,2,15.6069008,gonogo,f,j,403,38655,53,0.5520833333333334,dom,f,0.441161
05,2,2,15.624718233333335,gonogo,f,j,404,38784,86,0.8958333333333334,dom,f,0.706987
05,2,2,15.636025383333333,gonogo,f,j,405,38865,71,0.7395833333333334,dom,f,0.586483
05,2,2,15.650832716666667,gonogo,f,j,406,38972,82,0.8541666666666666,dom,f,0.671693
05,2,2,15.666262716666667,gonogo,f,j,407,39082,96,1.0,dom,0,0.0
05,2,2,15.670598466666666,gonogo,f,j,408,39114,32,0.3333333333333333,dom,f,0.260118
05,2,2,15.678961083333332,gonogo,f,j,408,39175,93,0.96875,dom,f,0.761876
05,2,2,15.69284965,gonogo,f,j,409,39274,96,1.0,dom,0,0.0
05,2,2,15.695711466666667,gonogo,f,j,410,39295,21,0.21875,dom,f,0.171685
05,2,2,15.719598783333334,gonogo,f,j,411,39466,96,1.0,dom,0,0.0
05,2,2,15.7329182,gonogo,f,j,412,39562,96,1.0,dom,0,0.0
05,2,2,15.734496866666666,gonogo,f,j,413,39574,12,0.125,dom,f,0.094694
05,2,2,15.746283983333333,gonogo,f,j,414,39659,1,0.010416666666666666,dom,f,0.006181
05,2,2,15.7630554,gonogo,f,j,415,39780,26,0.2708333333333333,dom,f,0.20851
05,2,2,15.772273866666666,gonogo,f,j,415,39846,92,0.9583333333333334,dom,f,0.761618
05,2,2,15.7861738,gonogo,f,j,416,39946,96,1.0,dom,0,0.0
05,2,2,15.7969397,gonogo,f,j,417,40024,78,0.8125,nondom,f,0.645929
05,2,2,15.811183699999999,gonogo,f,j,418,40127,85,0.8854166666666666,dom,f,0.700297
05,2,2,15.826185116666666,gonogo,f,j,419,40234,96,1.0,nondom,0,0.0
05,2,2,15.83958905,gonogo,f,j,420,40330,96,1.0,dom,0,0.0
05,2,2,15.84382485,gonogo,f,j,421,40362,32,0.3333333333333333,dom,f,0.254124
05,2,2,15.853639133333333,gonogo,f,j,422,40432,6,0.0625,dom,f,0.045738
05,2,2,15.869364766666667,gonogo,f,j,423,40545,23,0.23958333333333334,dom,f,0.186405
05,2,2,15.890974033333332,gonogo,f,j,424,40701,83,0.8645833333333334,nondom,f,0.684515
05,2,2,15.906302333333334,gonogo,f,j,425,40810,96,1.0,nondom,0,0.0
05,2,2,15.912493033333334,gonogo,f,j,426,40856,46,0.4791666666666667,dom,f,0.371413
05,2,2,16.381136016666666,gonogo,f,j,427,40972,65,0.6770833333333334,dom,f,0.526318
05,2,2,16.398839833333334,gonogo,f,j,428,41099,96,1.0,nondom,0,0.0
05,2,2,16.406290233333333,gonogo,f,j,429,41153,54,0.5625,dom,f,0.446998
05,2,2,16.420311616666666,gonogo,f,j,430,41253,58,0.6041666666666666,dom,f,0.487196
05,2,2,16.433131166666666,gonogo,f,j,431,41347,56,0.5833333333333334,dom,f,0.458792
05,2,2,16.44655095,gonogo,f,j,432,41443,56,0.5833333333333334,dom,f,0.463679
05,2,2,16.46170023333333,gonogo,f,j,433,41552,69,0.71875,dom,f,0.565379
05,2,2,16.473437183333335,gonogo,f,j,434,41636,57,0.59375,dom,f,0.47345
05,2,2,16.487153983333332,gonogo,f,j,435,41736,61,0.6354166666666666,nondom,f,0.494343
05,2,2,16.503454666666666,gonogo,f,j,436,41852,81,0.84375,dom,f,0.677976
05,2,2,16.518928233333334,gonogo,f,j,437,41963,96,1.0,dom,0,0.0
05,2,2,16.519038583333334,gonogo,f,j,438,41964,1,0.010416666666666666,dom,f,0.00657
05,2,2,16.536803533333334,gonogo,f,j,439,42092,33,0.34375,dom,f,0.263942
05,2,2,16.55595745,gonogo,f,j,440,42230,75,0.78125,dom,f,0.614102
05,2,2,16.567791816666666,gonogo,f,j,441,42315,64,0.6666666666666666,dom,f,0.526722
05,2,2,16.581276033333335,gonogo,f,j,442,42412,65,0.6770833333333334,dom,f,0.530979
05,2,2,16.598105483333335,gonogo,f,j,443,42533,90,0.9375,dom,f,0.74845
05,2,2,16.612293016666666,gonogo,f,j,444,42635,96,1.0,dom,0,0.0
05,2,2,16.614756566666667,gonogo,f,j,445,42653,18,0.1875,dom,f,0.147773
05,2,2,16.624268983333334,gonogo,f,j,445,42722,87,0.90625,dom,f,0.718535
05,2,2,16.636577433333333,gonogo,f,j,446,42810,79,0.8229166666666666,dom,f,0.650043
05,2,2,16.650968616666667,gonogo,f,j,447,42914,87,0.90625,dom,f,0.714479
05,2,2,16.663916316666665,gonogo,f,j,448,43007,84,0.875,dom,f,0.697619
05,2,2,16.677828633333334,gonogo,f,j,449,43107,88,0.9166666666666666,dom,f,0.72486
05,2,2,16.6884701,gonogo,f,j,450,43184,69,0.71875,dom,f,0.570768
05,2,2,16.699936316666665,gonogo,f,j,451,43267,56,0.5833333333333334,dom,f,0.457437
05,2,2,16.71493305,gonogo,f,j,452,43375,68,0.7083333333333334,dom,f,0.558745
05,2,2,16.732343033333333,gonogo,f,j,453,43499,96,1.0,nondom,0,0.0
05,2,2,16.741168783333332,gonogo,f,j,454,43563,64,0.6666666666666666,dom,f,0.529517
05,2,2,16.7589814,gonogo,f,j,455,43691,96,1.0,nondom,0,0.0
05,2,2,16.769578183333333,gonogo,f,j,456,43768,77,0.8020833333333334,dom,f,0.635763
05,2,2,16.784481200000002,gonogo,f,j,457,43875,88,0.9166666666666666,dom,f,0.726816
05,2,2,16.799067133333335,gonogo,f,j,458,43979,96,1.0,dom,0,0.0
05,2,2,16.807445966666666,gonogo,f,j,459,44041,62,0.6458333333333334,dom,f,0.502702
05,2,2,16.82235595,gonogo,f,j,460,44148,73,0.7604166666666666,dom,f,0.598639
05,2,2,16.83895275,gonogo,f,j,461,44267,96,1.0,dom,0,0.0
05,2,2,16.842396333333333,gonogo,f,j,462,44292,25,0.2604166666666667,dom,f,0.206592
05,2,2,16.863319083333334,gonogo,f,j,463,44443,80,0.8333333333333334,dom,f,0.658418
05,2,2,16.874230216666668,gonogo,f,j,464,44521,62,0.6458333333333334,dom,f,0.510743
05,2,2,16.892360583333335,gonogo,f,j,465,44651,96,1.0,dom,0,0.0
05,2,2,16.8953497,gonogo,f,j,466,44674,23,0.23958333333333334,dom,f,0.179322
05,2,2,16.908838616666667,gonogo,f,j,467,44771,24,0.25,dom,f,0.191173
05,2,2,17.33743613333333,gonogo,f,j,468,44913,69,0.71875,dom,f,0.564441
05,2,2,17.349258066666668,gonogo,f,j,469,44998,58,0.6041666666666666,dom,f,0.475515
05,2,2,17.362335616666666,gonogo,f,j,470,45092,56,0.5833333333333334,dom,f,0.46122
05,2,2,17.376068616666664,gonogo,f,j,471,45191,59,0.6145833333333334,dom,f,0.488799
05,2,2,17.389349250000002,gonogo,f,j,472,45286,58,0.6041666666666666,dom,f,0.478833
05,2,2,17.40089055,gonogo,f,j,473,45370,46,0.4791666666666667,dom,f,0.371934
05,2,2,17.414803216666666,gonogo,f,j,474,45470,50,0.5208333333333334,dom,f,0.409145
05,2,2,17.428977133333333,gonogo,f,j,475,45572,56,0.5833333333333334,dom,f,0.458555
05,2,2,17.442504983333333,gonogo,f,j,476,45670,58,0.6041666666666666,nondom,f,0.467755
05,2,2,17.454528866666667,gonogo,f,j,477,45756,48,0.5,dom,f,0.390084
05,2,2,17.47046956666667,gonogo,f,j,478,45871,67,0.6979166666666666,dom,f,0.548592
05,2,2,17.48797405,gonogo,f,j,479,45996,96,1.0,nondom,0,0.0
05,2,2,17.49811215,gonogo,f,j,480,46070,74,0.7708333333333334,dom,f,0.608252
05,2,2,17.514581850000003,gonogo,f,j,481,46188,96,1.0,dom,0,0.0
05,2,2,17.515755783333336,gonogo,f,j,482,46197,9,0.09375,dom,f,0.070412
05,2,2,17.526438416666668,gonogo,f,j,482,46274,86,0.8958333333333334,dom,f,0.711369
05,2,2,17.541387683333333,gonogo,f,j,483,46380,96,1.0,dom,0,0.0
05,2,2,17.543439966666664,gonogo,f,j,484,46396,16,0.16666666666666666,nondom,f,0.123098
05,2,2,17.567985683333333,gonogo,f,j,485,46572,96,1.0,dom,0,0.0
05,2,2,17.571674316666666,gonogo,f,j,486,46600,28,0.2916666666666667,dom,f,0.221292
05,2,2,17.58910523333333,gonogo,f,j,487,46724,56,0.5833333333333334,dom,f,0.467727
05,2,2,17.6018991,gonogo,f,j,488,46817,53,0.5520833333333334,dom,f,0.435034
05,2,2,17.617995766666663,gonogo,f,j,489,46932,72,0.75,dom,f,0.59984
05,2,2,17.631180916666665,gonogo,f,j,490,47028,72,0.75,dom,f,0.591066
05,2,2,17.646082816666667,gonogo,f,j,491,47135,83,0.8645833333333334,dom,f,0.689545
05,2,2,17.659113616666666,gonogo,f,j,492,47229,81,0.84375,dom,f,0.667543
05,2,2,17.674589700000002,gonogo,f,j,493,47340,96,1.0,dom,0,0.0
05,2,2,17.67969586666667,gonogo,f,j,494,47377,37,0.3854166666666667,dom,f,0.306337
05,2,2,17.69466913333333,gonogo,f,j,495,47485,49,0.5104166666666666,dom,f,0.404872
05,2,2,17.70735608333333,gonogo,f,j,496,47576,44,0.4583333333333333,nondom,f,0.362036
05,2,2,17.723407983333335,gonogo,f,j,497,47691,63,0.65625,dom,f,0.52966
05,2,2,17.741314816666666,gonogo,f,j,498,47820,96,1.0,dom,0,0.0
05,2,2,17.744796283333336,gonogo,f,j,499,47846,26,0.2708333333333333,dom,f,0.208859
05,2,2,17.752230433333335,gonogo,f,j,499,47900,80,0.8333333333333334,dom,f,0.65491
05,2,2,17.768035883333333,gonogo,f,j,500,48012,96,1.0,dom,0,0.0
05,2,2,17.769163466666665,gonogo,f,j,501,48021,9,0.09375,dom,f,0.06763
05,2,2,17.777482766666665,gonogo,f,j,501,48081,69,0.71875,dom,f,0.566785
05,2,2,17.792475083333333,gonogo,f,j,502,48189,81,0.84375,dom,f,0.673562
05,2,2,17.807346266666666,gonogo,f,j,503,48296,92,0.9583333333333334,dom,f,0.765354
05,2,2,17.8201026,gonogo,f,j,504,48388,88,0.9166666666666666,dom,f,0.723632
05,2,2,17.834116066666663,gonogo,f,j,505,48489,93,0.96875,dom,f,0.771645
05,2,2,17.84537913333333,gonogo,f,j,506,48570,78,0.8125,dom,f,0.64739
05,2,2,17.8557949,gonogo,f,j,507,48645,57,0.59375,dom,f,0.471807
05,2,2,17.869410016666667,gonogo,f,j,508,48743,59,0.6145833333333334,dom,f,0.488403
05,2,2,17.885251233333335,gonogo,f,j,509,48857,77,0.8020833333333334,dom,f,0.639631
05,2,2,17.89548358333333,gonogo,f,j,510,48931,55,0.5729166666666666,dom,f,0.453684
05,2,2,17.912303883333333,gonogo,f,j,511,49052,80,0.8333333333333334,dom,f,0.663117
05,2,2,18.38164383333333,gonogo,f,j,512,49125,56,0.5833333333333334,dom,f,0.452636
05,2,2,18.395839216666666,gonogo,f,j,513,49228,63,0.65625,dom,f,0.513883
05,2,2,18.40929338333333,gonogo,f,j,514,49324,63,0.65625,dom,f,0.52268
05,2,2,18.427342033333332,gonogo,f,j,515,49453,96,1.0,nondom,0,0.0
05,2,2,18.427892999999997,gonogo,f,j,516,49457,4,0.041666666666666664,dom,f,0.033032
05,2,2,18.437786416666665,gonogo,f,j,516,49530,77,0.8020833333333334,dom,f,0.626634
05,2,2,18.450929116666668,gonogo,f,j,517,49624,75,0.78125,dom,f,0.62258
05,2,2,18.467291783333334,gonogo,f,j,518,49741,96,1.0,dom,0,0.0
05,2,2,18.47021655,gonogo,f,j,519,49763,22,0.22916666666666666,dom,f,0.175456
05,2,2,18.4904032,gonogo,f,j,520,49908,71,0.7395833333333334,dom,f,0.591172
05,2,2,18.504796,gonogo,f,j,521,50012,79,0.8229166666666666,dom,f,0.650994
05,2,2,18.519458999999998,gonogo,f,j,522,50118,89,0.9270833333333334,dom,f,0.730234
05,2,2,18.533921733333333,gonogo,f,j,523,50221,96,1.0,dom,0,0.0
05,2,2,18.539948616666667,gonogo,f,j,524,50265,44,0.4583333333333333,dom,f,0.361587
05,2,2,18.560562416666667,gonogo,f,j,525,50413,96,1.0,dom,0,0.0
05,2,2,18.564018700000002,gonogo,f,j,526,50438,25,0.2604166666666667,dom,f,0.207351
05,2,2,18.573466783333334,gonogo,f,j,526,50506,93,0.96875,dom,f,0.774236
05,2,2,18.584198599999997,gonogo,f,j,527,50584,75,0.78125,dom,f,0.613757
05,2,2,18.600550116666668,gonogo,f,j,528,50701,96,1.0,dom,0,0.0
05,2,2,18.601953816666665,gonogo,f,j,529,50712,11,0.11458333333333333,dom,f,0.0842
05,2,2,18.61577025,gonogo,f,j,530,50811,14,0.14583333333333334,dom,f,0.106379
05,2,2,18.633486216666665,gonogo,f,j,531,50939,46,0.4791666666666667,dom,f,0.371103
05,2,2,18.652381516666665,gonogo,f,j,532,51075,86,0.8958333333333334,dom,f,0.705684
05,2,2,18.667311283333333,gonogo,f,j,533,51181,96,1.0,dom,0,0.0
05,2,2,18.667383633333333,gonogo,f,j,534,51182,1,0.010416666666666666,dom,f,0.004316
05,2,2,18.694010516666665,gonogo,f,j,535,51373,96,1.0,dom,0,0.0
05,2,2,18.70729771666667,gonogo,f,j,536,51469,96,1.0,nondom,0,0.0
05,2,2,18.720624349999998,gonogo,f,j,537,51565,96,1.0,nondom,0,0.0
05,2,2,18.7238167,gonogo,f,j,538,51589,24,0.25,dom,f,0.19151
05,2,2,18.73631088333333,gonogo,f,j,539,51678,17,0.17708333333333334,dom,f,0.142616
05,2,2,18.750240333333334,gonogo,f,j,540,51779,22,0.22916666666666666,dom,f,0.177417
05,2,2,18.7626591,gonogo,f,j,541,51868,15,0.15625,dom,f,0.121463
05,2,2,18.77487015,gonogo,f,j,542,51957,8,0.08333333333333333,dom,f,0.054983
05,2,2,18.786237633333332,gonogo,f,j,542,52038,89,0.9270833333333334,dom,f,0.737026
05,2,2,18.7980321,gonogo,f,j,543,52123,78,0.8125,dom,f,0.64357
05,2,2,18.813952033333333,gonogo,f,j,544,52237,96,1.0,nondom,0,0.0
05,2,2,18.814518016666668,gonogo,f,j,545,52242,5,0.052083333333333336,dom,f,0.033927
05,2,2,18.82843195,gonogo,f,j,546,52342,9,0.09375,dom,f,0.067265
05,2,2,18.842890399999998,gonogo,f,j,547,52446,17,0.17708333333333334,dom,f,0.136093
05,2,2,18.857601133333333,gonogo,f,j,548,52552,27,0.28125,dom,f,0.222226
05,2,2,18.868742566666665,gonogo,f,j,549,52632,11,0.11458333333333333,dom,f,0.087444
05,2,2,18.882457866666666,gonogo,f,j,550,52731,14,0.14583333333333334,dom,f,0.114337
05,2,2,18.892348183333336,gonogo,f,j,550,52802,85,0.8854166666666666,dom,f,0.707756
05,2,2,18.904302316666666,gonogo,f,j,551,52888,75,0.78125,dom,f,0.624709
05,2,2,18.92065931666667,gonogo,f,j,552,53005,96,1.0,nondom,0,0.0
05,2,2,18.928539049999998,gonogo,f,j,553,53063,58,0.6041666666666666,dom,f,0.472756
05,2,2,19.552390083333332,gonogo,f,j,554,53149,47,0.4895833333333333,dom,f,0.377252
05,2,2,19.568480150000003,gonogo,f,j,555,53265,67,0.6979166666666666,dom,f,0.554343
05,2,2,19.5859054,gonogo,f,j,556,53390,96,1.0,dom,0,0.0
05,2,2,19.58600845,gonogo,f,j,557,53391,1,0.010416666666666666,dom,f,0.00615
05,2,2,19.593911616666666,gonogo,f,j,557,53448,58,0.6041666666666666,dom,f,0.480348
05,2,2,19.607639333333335,gonogo,f,j,558,53547,61,0.6354166666666666,dom,f,0.498853
05,2,2,19.623397833333335,gonogo,f,j,559,53660,78,0.8125,dom,f,0.641875
05,2,2,19.638418233333333,gonogo,f,j,560,53769,91,0.9479166666666666,dom,f,0.743658
05,2,2,19.6525033,gonogo,f,j,561,53870,96,1.0,dom,f,0.789291
05,2,2,19.663398533333336,gonogo,f,j,562,53948,78,0.8125,dom,f,0.635487
05,2,2,19.679310783333335,gonogo,f,j,563,54062,96,1.0,dom,0,0.0
05,2,2,19.68076443333333,gonogo,f,j,564,54073,11,0.11458333333333333,dom,f,0.087196
05,2,2,19.695497333333332,gonogo,f,j,565,54180,22,0.22916666666666666,nondom,f,0.168499
05,2,2,19.715313733333335,gonogo,f,j,566,54322,68,0.7083333333333334,dom,f,0.561557
05,2,2,19.7298795,gonogo,f,j,567,54427,77,0.8020833333333334,dom,f,0.633117
05,2,2,19.74599346666667,gonogo,f,j,568,54542,96,1.0,nondom,0,0.0
05,2,2,19.753814183333336,gonogo,f,j,569,54599,57,0.59375,dom,f,0.46921
05,2,2,19.767385683333334,gonogo,f,j,570,54696,58,0.6041666666666666,dom,f,0.486962
05,2,2,19.780923883333333,gonogo,f,j,571,54794,60,0.625,dom,f,0.498232
05,2,2,19.79293735,gonogo,f,j,572,54881,51,0.53125,dom,f,0.417844
05,2,2,19.809249166666667,gonogo,f,j,573,54999,73,0.7604166666666666,dom,f,0.595751
05,2,2,19.819641866666664,gonogo,f,j,574,55073,51,0.53125,dom,f,0.420408
05,2,2,19.835688433333335,gonogo,f,j,575,55188,70,0.7291666666666666,dom,f,0.581902
05,2,2,19.8526345,gonogo,f,j,576,55310,96,1.0,dom,0,0.0
05,2,2,19.8529984,gonogo,f,j,577,55314,4,0.041666666666666664,dom,f,0.021803
05,2,2,19.8624818,gonogo,f,j,577,55382,72,0.75,dom,f,0.590814
05,2,2,19.8792345,gonogo,f,j,578,55502,96,1.0,dom,0,0.0
05,2,2,19.8830015,gonogo,f,j,579,55529,27,0.28125,dom,f,0.225998
05,2,2,19.891528333333333,gonogo,f,j,579,55591,89,0.9270833333333334,dom,f,0.737604
05,2,2,19.905929066666666,gonogo,f,j,580,55694,96,1.0,dom,0,0.0
05,2,2,19.919239,gonogo,f,j,581,55790,96,1.0,dom,0,0.0
05,2,2,19.921192916666666,gonogo,f,j,582,55805,15,0.15625,dom,f,0.117212
05,2,2,19.9295436,gonogo,f,j,582,55864,74,0.7708333333333334,dom,f,0.618255
05,2,2,19.945976266666666,gonogo,f,j,583,55982,96,1.0,dom,0,0.0
05,2,2,19.9485371,gonogo,f,j,584,56001,19,0.19791666666666666,dom,f,0.153624
05,2,2,19.9597091,gonogo,f,j,585,56082,4,0.041666666666666664,dom,f,0.028629
05,2,2,19.975088416666665,gonogo,f,j,586,56192,18,0.1875,dom,f,0.143942
05,2,2,19.99348605,gonogo,f,j,587,56325,55,0.5729166666666666,dom,f,0.454876
05,2,2,20.00183825,gonogo,f,j,588,56385,19,0.19791666666666666,dom,f,0.153219
05,2,2,20.551189566666668,gonogo,f,j,589,56521,58,0.6041666666666666,dom,f,0.467494
05,2,2,20.56613026666667,gonogo,f,j,590,56628,69,0.71875,dom,f,0.569358
05,2,2,20.581583133333332,gonogo,f,j,591,56739,84,0.875,dom,f,0.699144
05,2,2,20.596660966666665,gonogo,f,j,592,56847,96,1.0,dom,0,0.0
05,2,2,20.604390016666667,gonogo,f,j,593,56904,57,0.59375,dom,f,0.463719
05,2,2,20.609744250000002,gonogo,f,j,593,56942,95,0.9895833333333334,dom,f,0.784968
05,2,2,20.62070205,gonogo,f,j,594,57021,78,0.8125,dom,f,0.635823
05,2,2,20.636631166666668,gonogo,f,j,595,57135,96,1.0,dom,0,0.0
05,2,2,20.638112116666665,gonogo,f,j,596,57146,11,0.11458333333333333,dom,f,0.088818
05,2,2,20.66110796666667,gonogo,f,j,597,57312,81,0.84375,nondom,f,0.665749
05,2,2,20.67365075,gonogo,f,j,598,57402,75,0.78125,dom,f,0.619601
05,2,2,20.689993266666665,gonogo,f,j,599,57519,96,1.0,dom,0,0.0
05,2,2,20.703335433333333,gonogo,f,j,600,57615,96,1.0,dom,0,0.0
05,2,2,20.70681205,gonogo,f,j,601,57641,26,0.2708333333333333,dom,f,0.208567
05,2,2,20.7270282,gonogo,f,j,602,57787,76,0.7916666666666666,dom,f,0.619822
05,2,2,20.743350216666666,gonogo,f,j,603,57903,96,1.0,dom,0,0.0
05,2,2,20.756671416666666,gonogo,f,j,604,57999,96,1.0,dom,0,0.0
05,2,2,20.756941233333336,gonogo,f,j,605,58002,3,0.03125,dom,f,0.016166
05,2,2,20.766057550000003,gonogo,f,j,605,58068,69,0.71875,dom,f,0.563144
05,2,2,20.781030966666666,gonogo,f,j,606,58175,80,0.8333333333333334,dom,f,0.662695
05,2,2,20.788694233333334,gonogo,f,j,607,58231,40,0.4166666666666667,dom,f,0.321916
05,2,2,20.81000691666667,gonogo,f,j,608,58383,96,1.0,dom,0,0.0
05,2,2,20.81011555,gonogo,f,j,609,58384,1,0.010416666666666666,dom,f,0.006484
05,2,2,20.817390516666666,gonogo,f,j,609,58436,53,0.5520833333333334,dom,f,0.442989
05,2,2,20.838106533333335,gonogo,f,j,610,58575,96,1.0,dom,0,0.0
05,2,2,20.8513987,gonogo,f,j,611,58671,96,1.0,dom,0,0.0
05,2,2,20.856748083333333,gonogo,f,j,612,58711,40,0.4166666666666667,dom,f,0.320938
05,2,2,20.86730223333333,gonogo,f,j,613,58786,19,0.19791666666666666,dom,f,0.153615
05,2,2,20.88685645,gonogo,f,j,614,58927,64,0.6666666666666666,dom,f,0.531403
05,2,2,20.899172983333337,gonogo,f,j,615,59016,57,0.59375,dom,f,0.471183
05,2,2,20.913091966666666,gonogo,f,j,616,59116,61,0.6354166666666666,dom,f,0.503147
05,2,2,20.92960125,gonogo,f,j,617,59235,84,0.875,dom,f,0.693111
05,2,2,20.940659216666667,gonogo,f,j,618,59313,66,0.6875,dom,f,0.556193
05,2,2,20.952726366666663,gonogo,f,j,619,59400,57,0.59375,dom,f,0.480647
05,2,2,20.96697141666667,gonogo,f,j,620,59504,65,0.6770833333333334,dom,f,0.538881
05,2,2,20.984691416666667,gonogo,f,j,621,59631,96,1.0,nondom,0,0.0
05,2,2,20.990583066666666,gonogo,f,j,622,59674,43,0.4479166666666667,dom,f,0.353473
05,2,2,21.00563605,gonogo,f,j,623,59783,56,0.5833333333333334,dom,f,0.457516
05,2,2,21.017518966666668,gonogo,f,j,624,59868,45,0.46875,dom,f,0.366863
05,2,2,21.0303788,gonogo,f,j,625,59961,42,0.4375,dom,f,0.338633
05,2,2,21.05143448333333,gonogo,f,j,626,60111,96,1.0,nondom,0,0.0
05,2,2,21.0576581,gonogo,f,j,627,60157,46,0.4791666666666667,dom,f,0.373389
05,2,2,21.077985450000003,gonogo,f,j,628,60303,96,1.0,dom,0,0.0
05,2,2,21.078093366666668,gonogo,f,j,629,60304,1,0.010416666666666666,dom,f,0.00644
05,2,2,21.104685533333335,gonogo,f,j,630,60495,96,1.0,dom,0,0.0
05,2,2,21.1179919,gonogo,f,j,631,60591,96,1.0,dom,0,0.0
05,2,2,21.1194373,gonogo,f,j,632,60602,11,0.11458333333333333,dom,f,0.086701
05,2,2,21.125517483333333,gonogo,f,j,632,60644,53,0.5520833333333334,dom,f,0.451513
05,2,2,21.617691616666665,gonogo,f,j,633,60754,66,0.6875,dom,f,0.537452
05,2,2,21.630491099999997,gonogo,f,j,634,60847,63,0.65625,dom,f,0.51069
05,2,2,21.64142295,gonogo,f,j,635,60925,45,0.46875,dom,f,0.365523
05,2,2,21.653530550000003,gonogo,f,j,636,61012,36,0.375,dom,f,0.293816
05,2,2,21.66685305,gonogo,f,j,637,61108,36,0.375,dom,f,0.29375
05,2,2,21.680562766666664,gonogo,f,j,638,61207,39,0.40625,nondom,f,0.31599
05,2,2,21.694005833333332,gonogo,f,j,639,61303,39,0.40625,dom,f,0.322797
05,2,2,21.706605033333336,gonogo,f,j,640,61393,33,0.34375,dom,f,0.278117
05,2,2,21.720800083333334,gonogo,f,j,641,61496,40,0.4166666666666667,dom,f,0.335484
05,2,2,21.734983866666667,gonogo,f,j,642,61599,47,0.4895833333333333,dom,f,0.386634
05,2,2,21.752655816666667,gonogo,f,j,643,61726,78,0.8125,dom,f,0.643439
05,2,2,21.768639383333333,gonogo,f,j,644,61840,96,1.0,dom,0,0.0
05,2,2,21.7691914,gonogo,f,j,645,61845,5,0.052083333333333336,dom,f,0.033094
05,2,2,21.782663083333333,gonogo,f,j,646,61942,6,0.0625,dom,f,0.045587
05,2,2,21.793977183333332,gonogo,f,j,646,62024,88,0.9166666666666666,dom,f,0.724434
05,2,2,21.808561233333332,gonogo,f,j,647,62128,96,1.0,dom,0,0.0
05,2,2,21.813389916666665,gonogo,f,j,648,62163,35,0.3645833333333333,nondom,f,0.289695
05,2,2,21.835213383333333,gonogo,f,j,649,62320,96,1.0,dom,0,0.0
05,2,2,21.83589376666667,gonogo,f,j,650,62325,5,0.052083333333333336,nondom,f,0.040799
05,2,2,21.845228266666666,gonogo,f,j,650,62391,71,0.7395833333333334,nondom,f,0.600864
05,2,2,21.861878166666667,gonogo,f,j,651,62512,96,1.0,dom,0,0.0
05,2,2,21.86314691666667,gonogo,f,j,652,62522,10,0.10416666666666667,dom,f,0.076101
05,2,2,21.876220783333334,gonogo,f,j,653,62615,7,0.07291666666666667,dom,f,0.054888
05,2,2,21.886561416666666,gonogo,f,j,653,62690,82,0.8541666666666666,dom,f,0.675323
05,2,2,21.90187345,gonogo,f,j,654,62800,96,1.0,nondom,0,0.0
05,2,2,21.914304866666665,gonogo,f,j,655,62890,90,0.9375,dom,f,0.745859
05,2,2,21.92529473333333,gonogo,f,j,656,62969,73,0.7604166666666666,dom,f,0.604772
05,2,2,21.9419267,gonogo,f,j,657,63088,96,1.0,dom,0,0.0
05,2,2,21.955283766666664,gonogo,f,j,658,63184,96,1.0,dom,0,0.0
05,2,2,21.964077999999997,gonogo,f,j,659,63248,64,0.6666666666666666,dom,f,0.527627
05,2,2,21.973354316666665,gonogo,f,j,660,63315,35,0.3645833333333333,dom,f,0.28821
05,2,2,21.983784566666667,gonogo,f,j,661,63390,14,0.14583333333333334,nondom,f,0.1069
05,2,2,22.000628383333332,gonogo,f,j,662,63512,40,0.4166666666666667,dom,f,0.320851
05,2,2,22.014806883333332,gonogo,f,j,663,63612,44,0.4583333333333333,dom,f,0.368544
05,2,2,22.026621116666668,gonogo,f,j,664,63699,35,0.3645833333333333,dom,f,0.283339
05,2,2,22.042684316666666,gonogo,f,j,665,63814,54,0.5625,dom,f,0.448501
05,2,2,22.0615591,gonogo,f,j,666,63950,94,0.9791666666666666,dom,f,0.776611
05,2,2,22.075088666666666,gonogo,f,j,667,64048,96,1.0,dom,f,0.783976
05,2,2,22.08862765,gonogo,f,j,668,64144,96,1.0,dom,0,0.0
05,2,2,22.09237875,gonogo,f,j,669,64172,28,0.2916666666666667,dom,f,0.225036
05,2,2,22.110274450000002,gonogo,f,j,670,64300,60,0.625,nondom,f,0.498455
05,2,2,22.126678533333333,gonogo,f,j,671,64419,83,0.8645833333333334,dom,f,0.681138
05,2,2,22.136063116666666,gonogo,f,j,672,64487,55,0.5729166666666666,dom,f,0.446022
05,2,2,22.531220266666665,gonogo,f,j,673,64589,60,0.625,dom,f,0.479914
05,2,2,22.54698953333333,gonogo,f,j,674,64701,76,0.7916666666666666,dom,f,0.636885
05,2,2,22.55730595,gonogo,f,j,675,64777,56,0.5833333333333334,dom,f,0.458964
05,2,2,22.573130866666666,gonogo,f,j,676,64891,74,0.7708333333333334,dom,f,0.606203
05,2,2,22.586783500000003,gonogo,f,j,677,64989,76,0.7916666666666666,dom,f,0.62049
05,2,2,22.598389283333333,gonogo,f,j,678,65072,63,0.65625,dom,f,0.52391
05,2,2,22.6138267,gonogo,f,j,679,65184,79,0.8229166666666666,dom,f,0.642826
05,2,2,22.627647216666666,gonogo,f,j,680,65283,82,0.8541666666666666,dom,f,0.677932
05,2,2,22.64282925,gonogo,f,j,681,65392,95,0.9895833333333334,dom,f,0.790482
05,2,2,22.65558695,gonogo,f,j,682,65484,91,0.9479166666666666,dom,f,0.739997
05,2,2,22.669661366666666,gonogo,f,j,683,65585,96,1.0,dom,0,0.0
05,2,2,22.670775216666666,gonogo,f,j,684,65594,9,0.09375,dom,f,0.066804
05,2,2,22.682615883333334,gonogo,f,j,684,65678,93,0.96875,dom,f,0.777248
05,2,2,22.695006883333335,gonogo,f,j,685,65768,87,0.90625,dom,f,0.71817
05,2,2,22.707634083333335,gonogo,f,j,686,65858,81,0.84375,dom,f,0.674703
05,2,2,22.72133231666667,gonogo,f,j,687,65958,85,0.8854166666666666,dom,f,0.694461
05,2,2,22.735987466666664,gonogo,f,j,688,66063,94,0.9791666666666666,dom,f,0.780078
05,2,2,22.7491619,gonogo,f,j,689,66158,93,0.96875,dom,f,0.763225
05,2,2,22.761680333333334,gonogo,f,j,690,66248,87,0.90625,dom,f,0.718587
05,2,2,22.77553491666667,gonogo,f,j,691,66348,91,0.9479166666666666,dom,f,0.748074
05,2,2,22.789712016666666,gonogo,f,j,692,66449,96,1.0,nondom,0,0.0
05,2,2,22.79083435,gonogo,f,j,693,66458,9,0.09375,dom,f,0.067295
05,2,2,22.800659333333332,gonogo,f,j,693,66529,80,0.8333333333333334,dom,f,0.656798
05,2,2,22.816386583333333,gonogo,f,j,694,66641,96,1.0,nondom,0,0.0
05,2,2,22.82495095,gonogo,f,j,695,66704,63,0.65625,dom,f,0.513836
05,2,2,22.840565833333336,gonogo,f,j,696,66816,79,0.8229166666666666,dom,f,0.648901
05,2,2,22.853326066666668,gonogo,f,j,697,66907,74,0.7708333333333334,dom,f,0.615989
05,2,2,22.86724578333333,gonogo,f,j,698,67008,79,0.8229166666666666,dom,f,0.651784
05,2,2,22.878670383333333,gonogo,f,j,699,67090,65,0.6770833333333334,dom,f,0.539235
05,2,2,22.89252571666667,gonogo,f,j,700,67190,69,0.71875,nondom,f,0.5688
05,2,2,22.906327616666665,gonogo,f,j,701,67290,73,0.7604166666666666,dom,f,0.600487
05,2,2,22.921717100000002,gonogo,f,j,702,67400,87,0.90625,dom,f,0.721059
05,2,2,22.93640256666667,gonogo,f,j,703,67505,96,1.0,dom,0,0.0
05,2,2,22.93810845,gonogo,f,j,704,67518,13,0.13541666666666666,dom,f,0.102327
05,2,2,22.948094616666666,gonogo,f,j,704,67590,85,0.8854166666666666,dom,f,0.701482
05,2,2,22.96299241666667,gonogo,f,j,705,67697,96,1.0,dom,0,0.0
05,2,2,22.9698733,gonogo,f,j,706,67747,50,0.5208333333333334,dom,f,0.41282
05,2,2,22.977931866666665,gonogo,f,j,707,67805,12,0.125,dom,f,0.096506
05,2,2,22.992226066666667,gonogo,f,j,708,67908,19,0.19791666666666666,dom,f,0.147318
05,2,2,23.002131883333334,gonogo,f,j,708,67979,90,0.9375,dom,f,0.741671
05,2,2,23.015550150000003,gonogo,f,j,709,68075,90,0.9375,dom,f,0.750681
05,2,2,23.02965935,gonogo,f,j,710,68177,96,1.0,dom,0,0.0
05,2,2,23.043055283333334,gonogo,f,j,711,68273,96,1.0,dom,0,0.0
05,2,2,23.04658208333333,gonogo,f,j,712,68299,26,0.2708333333333333,dom,f,0.211582
05,2,2,23.0688031,gonogo,f,j,713,68459,90,0.9375,dom,f,0.749339
05,2,2,23.0830585,gonogo,f,j,714,68561,96,1.0,dom,0,0.0
05,2,2,23.086238183333332,gonogo,f,j,715,68583,22,0.22916666666666666,dom,f,0.190757
05,2,2,23.102311216666667,gonogo,f,j,716,68701,44,0.4583333333333333,dom,f,0.355397
05,2,2,23.584159383333333,gonogo,f,j,717,68850,96,1.0,nondom,0,0.0
05,2,2,23.593500083333332,gonogo,f,j,718,68918,68,0.7083333333333334,dom,f,0.560414
05,2,2,23.606676133333334,gonogo,f,j,719,69013,67,0.6979166666666666,dom,f,0.554053
05,2,2,23.619939583333334,gonogo,f,j,720,69109,67,0.6979166666666666,dom,f,0.546667
